id,new_item,new_resp,correct,rt,trial
1,0,1,0,2.651497,1
1,0,0,1,1.397002,2
1,0,0,1,1.37698,3
1,0,0,1,1.777742,4
1,0,0,1,1.106758,5
1,0,0,1,1.496114,6
1,1,1,1,1.609932,7
1,1,1,1,0.956915,8
1,1,1,1,0.86723,9
1,1,0,0,1.292571,10
1,0,0,1,1.086253,11
1,1,1,1,1.59114,12
1,0,0,1,1.490851,13
1,0,0,1,0.989886,14
1,0,0,1,0.875439,15
1,1,1,1,1.946083,16
1,1,1,1,1.045177,17
1,1,1,1,0.977191,18
1,0,0,1,1.375187,19
1,1,1,1,2.269414,20
1,0,1,0,1.573574,21
1,1,0,0,1.160797,22
1,0,0,1,0.962939,23
1,1,0,0,1.092968,24
1,0,0,1,0.979521,25
1,0,0,1,0.860875,26
1,0,1,0,1.281399,27
1,0,1,0,1.472446,28
1,1,1,1,2.248463,29
1,1,1,1,1.273446,30
1,1,0,0,1.978523,31
1,0,0,1,0.986369,32
1,1,1,1,1.500206,33
1,1,1,1,0.989587,34
1,0,0,1,1.488288,35
1,1,1,1,1.493645,36
1,0,0,1,1.367797,37
1,0,0,1,0.878391,38
1,0,1,0,1.478497,39
1,1,1,1,1.592087,40
1,0,1,0,2.325771,41
1,0,0,1,1.067884,42
1,0,0,1,1.10518,43
1,0,0,1,1.097728,44
1,1,1,1,2.069158,45
1,1,1,1,1.163397,46
1,1,0,0,2.153973,47
1,0,0,1,1.079443,48
1,1,1,1,1.602923,49
1,1,1,1,1.18917,50
1,0,0,1,1.612253,51
1,1,0,0,1.101308,52
1,1,0,0,2.125488,53
1,1,1,1,1.931305,54
1,1,1,1,1.580843,55
1,1,1,1,1.067324,56
1,1,1,1,0.991903,57
1,0,0,1,1.399122,58
1,0,0,1,0.882656,59
1,1,1,1,1.616242,60
1,0,0,1,1.458291,61
1,0,0,1,0.999942,62
1,0,0,1,0.989386,63
1,1,1,1,1.723901,64
1,0,0,1,1.267978,65
1,0,0,1,0.8796,66
1,1,1,1,1.171904,67
1,1,0,0,1.262733,68
1,1,0,0,1.092921,69
1,0,1,0,1.070877,70
1,0,0,1,1.19174,71
1,1,1,1,1.294745,72
1,1,1,1,1.171161,73
1,0,0,1,1.47382,74
1,1,0,0,2.082073,75
1,0,0,1,0.959317,76
1,1,0,0,2.620673,77
1,0,0,1,1.297145,78
1,0,0,1,0.985938,79
1,0,0,1,1.215009,80
1,0,0,1,1.078531,81
1,0,1,0,1.617932,82
1,0,0,1,1.391234,83
1,1,0,0,0.878443,84
1,0,0,1,1.091784,85
1,0,1,0,1.286268,86
1,1,0,0,1.625917,87
1,0,0,1,1.475011,88
1,1,0,0,1.464702,89
1,0,0,1,1.91213,90
1,1,1,1,1.399703,91
1,1,1,1,0.982603,92
1,1,1,1,0.993422,93
1,1,1,1,0.861859,94
1,1,1,1,0.878464,95
1,1,1,1,0.977634,96
1,1,1,1,0.985887,97
1,1,1,1,0.983249,98
1,0,0,1,1.793803,99
1,0,1,0,2.336779,100
1,1,1,1,0.963081,101
1,1,1,1,0.985074,102
1,0,0,1,1.730079,103
1,1,0,0,1.073754,104
1,0,0,1,1.101673,105
1,1,1,1,1.487548,106
1,1,1,1,0.985791,107
1,0,0,1,2.158284,108
1,1,1,1,1.597145,109
1,1,1,1,0.993301,110
1,0,0,1,2.188753,111
1,0,0,1,0.980022,112
2,1,1,1,NA,1
2,1,1,1,1.296974,2
2,0,0,1,1.680421,3
2,0,0,1,1.364865,4
2,0,0,1,1.274793,5
2,0,0,1,1.265182,6
2,1,1,1,1.474366,7
2,0,1,0,1.703714,8
2,0,0,1,1.486025,9
2,1,1,1,1.384649,10
2,0,1,0,1.793607,11
2,1,1,1,1.489449,12
2,0,1,0,1.095195,13
2,0,0,1,1.491764,14
2,1,1,1,1.277191,15
2,1,1,1,1.371959,16
2,1,1,1,1.955343,17
2,0,0,1,1.355702,18
2,0,0,1,1.473236,19
2,1,1,1,2.229228,20
2,1,1,1,1.615174,21
2,1,1,1,1.496681,22
2,1,1,1,1.496129,23
2,0,0,1,1.482949,24
2,1,1,1,1.482441,25
2,1,1,1,1.285273,26
2,0,0,1,1.55683,27
2,0,0,1,1.385141,28
2,0,0,1,1.35373,29
2,1,1,1,1.484664,30
2,0,1,0,1.684809,31
2,1,1,1,1.258489,32
2,0,0,1,1.481114,33
2,1,0,0,1.477141,34
2,0,0,1,1.576264,35
2,1,1,1,1.510464,36
2,1,1,1,1.395443,37
2,0,1,0,1.940197,38
2,1,1,1,1.489917,39
2,0,0,1,1.833445,40
2,0,1,0,1.711968,41
2,0,1,0,1.707512,42
2,1,1,1,1.176809,43
2,0,0,1,1.486806,44
2,0,0,1,1.69706,45
2,0,0,1,1.304968,46
2,0,0,1,1.210775,47
2,1,0,0,1.53372,48
2,0,0,1,1.211977,49
2,1,1,1,1.713943,50
2,1,1,1,1.582682,51
2,1,1,1,1.275613,52
2,1,1,1,1.273802,53
2,1,1,1,1.180621,54
2,0,1,0,1.174303,55
2,0,0,1,1.788,56
2,0,0,1,1.369754,57
2,1,1,1,1.698028,58
2,1,1,1,1.802323,59
2,0,1,0,1.695342,60
2,0,1,0,1.378815,61
2,1,1,1,1.497851,62
2,0,0,1,1.705344,63
2,0,0,1,1.384946,64
2,1,1,1,1.598266,65
2,0,0,1,1.693592,66
2,1,1,1,1.28732,67
2,1,1,1,1.503652,68
2,1,1,1,1.294225,69
2,1,1,1,1.201057,70
2,1,1,1,1.401152,71
2,0,0,1,2.354967,72
2,0,0,1,2.026137,73
2,0,0,1,1.785744,74
2,1,0,0,1.592974,75
2,1,1,1,1.706443,76
2,0,0,1,1.678098,77
2,1,1,1,1.494347,78
2,0,0,1,1.29842,79
2,0,0,1,1.727415,80
2,1,1,1,1.505954,81
2,1,1,1,1.385961,82
2,1,0,0,1.283255,83
2,0,0,1,1.822559,84
2,0,1,0,1.69185,85
2,0,1,0,1.314865,86
2,0,1,0,1.198048,87
2,1,1,1,1.201487,88
2,1,1,1,1.196081,89
2,1,1,1,1.088045,90
2,1,1,1,1.501019,91
2,1,1,1,NA,92
2,1,1,1,1.311452,93
2,0,0,1,1.715561,94
2,0,0,1,1.505739,95
2,0,0,1,1.823715,96
2,1,1,1,1.589498,97
2,0,1,0,1.202318,98
2,1,1,1,1.734372,99
2,0,1,0,1.304644,100
2,1,1,1,1.329255,101
2,1,1,1,1.205146,102
2,0,1,0,1.320502,103
2,0,1,0,1.305459,104
2,0,1,0,1.320893,105
2,1,0,0,1.307253,106
2,0,0,1,1.720792,107
2,1,1,1,1.486516,108
2,1,1,1,1.386189,109
2,1,1,1,1.591002,110
2,0,1,0,1.282288,111
2,0,0,1,2.429439,112
3,0,0,1,2.405724,1
3,0,0,1,1.439034,2
3,1,1,1,1.831128,3
3,0,0,1,1.489575,4
3,0,0,1,1.21393,5
3,1,1,1,2.025153,6
3,0,0,1,1.356152,7
3,0,0,1,0.979771,8
3,0,0,1,2.061981,9
3,0,0,1,0.87953,10
3,0,0,1,0.9706,11
3,1,1,1,2.460916,12
3,0,0,1,1.052819,13
3,1,1,1,1.614731,14
3,1,1,1,1.489091,15
3,0,1,0,2.824531,16
3,1,0,0,1.722445,17
3,0,0,1,0.99961,18
3,1,0,0,0.978445,19
3,0,0,1,1.10207,20
3,1,1,1,1.923577,21
3,1,1,1,2.03803,22
3,0,0,1,1.626785,23
3,1,1,1,1.812677,24
3,0,0,1,1.38236,25
3,0,1,0,2.150987,26
3,1,1,1,1.691911,27
3,1,0,0,2.033103,28
3,0,0,1,1.088948,29
3,1,1,1,1.619018,30
3,0,0,1,1.707017,31
3,0,0,1,0.988821,32
3,1,1,1,1.707891,33
3,1,1,1,1.38347,34
3,0,0,1,1.588651,35
3,1,1,1,1.933853,36
3,0,1,0,2.016484,37
3,0,0,1,1.825833,38
3,0,0,1,1.516672,39
3,1,1,1,1.833744,40
3,0,0,1,1.711412,41
3,1,1,1,1.947575,42
3,1,1,1,1.492995,43
3,0,0,1,1.508944,44
3,1,1,1,2.031709,45
3,1,1,1,1.69214,46
3,1,1,1,1.613163,47
3,1,1,1,1.541043,48
3,1,1,1,1.211112,49
3,1,1,1,0.991481,50
3,0,1,0,1.297742,51
3,1,1,1,1.651078,52
3,0,0,1,2.060201,53
3,0,0,1,1.179583,54
3,0,1,0,NA,55
3,0,0,1,1.610737,56
3,1,1,1,1.744827,57
3,0,0,1,1.399848,58
3,1,1,1,1.824726,59
3,1,1,1,1.504948,60
3,0,0,1,2.27583,61
3,1,1,1,1.731511,62
3,1,1,1,1.479371,63
3,1,1,1,1.187237,64
3,1,1,1,1.430638,65
3,1,1,1,1.102818,66
3,0,0,1,1.611642,67
3,0,1,0,1.398161,68
3,1,1,1,1.422668,69
3,0,0,1,1.515405,70
3,0,0,1,2.306038,71
3,1,1,1,2.215069,72
3,1,0,0,1.564038,73
3,0,0,1,2.425434,74
3,1,1,1,1.885519,75
3,1,1,1,NA,76
3,1,1,1,3.396815,77
3,0,0,1,1.610845,78
3,1,0,0,1.199455,79
3,0,0,1,1.101632,80
3,0,0,1,0.985006,81
3,1,1,1,2.148989,82
3,0,0,1,1.422585,83
3,0,0,1,2.173506,84
3,0,0,1,0.989484,85
3,1,1,1,2.352362,86
3,0,0,1,1.94309,87
3,0,0,1,0.967562,88
3,0,0,1,1.0654,89
3,1,0,0,1.916144,90
3,1,1,1,1.992197,91
3,0,0,1,1.583305,92
3,1,1,1,1.818392,93
3,0,0,1,2.142566,94
3,0,0,1,1.091837,95
3,0,0,1,1.104911,96
3,1,0,0,1.201873,97
3,1,1,1,1.629006,98
3,1,0,0,1.794144,99
3,1,0,0,NA,100
3,1,1,1,1.587585,101
3,0,0,1,1.611718,102
3,1,1,1,1.600393,103
3,0,0,1,2.22634,104
3,1,1,1,1.524352,105
3,1,1,1,1.209288,106
3,1,1,1,1.204113,107
3,1,1,1,0.989573,108
3,0,0,1,1.59864,109
3,0,0,1,1.587902,110
3,0,0,1,1.096187,111
3,0,0,1,1.098868,112
4,0,1,0,1.989689,1
4,0,0,1,1.62048,2
4,0,0,1,1.175977,3
4,1,0,0,1.173833,4
4,0,0,1,1.088826,5
4,1,1,1,1.627787,6
4,0,1,0,1.169255,7
4,0,0,1,1.277635,8
4,0,1,0,1.055197,9
4,1,0,0,1.160138,10
4,1,1,1,1.056769,11
4,1,1,1,1.480661,12
4,1,0,0,1.150831,13
4,0,0,1,0.980346,14
4,0,0,1,1.095372,15
4,1,1,1,1.833112,16
4,1,0,0,1.284294,17
4,0,0,1,0.964272,18
4,1,1,1,1.567275,19
4,0,1,0,1.808232,20
4,0,0,1,1.278993,21
4,1,1,1,1.795476,22
4,0,0,1,1.089354,23
4,0,0,1,0.98511,24
4,1,1,1,1.602178,25
4,0,0,1,1.713525,26
4,0,0,1,0.985907,27
4,0,0,1,1.099072,28
4,0,0,1,1.785698,29
4,1,1,1,1.176196,30
4,1,1,1,0.988896,31
4,0,0,1,2.152492,32
4,0,0,1,1.497886,33
4,1,1,1,1.281559,34
4,0,0,1,1.628719,35
4,1,1,1,1.159575,36
4,0,0,1,1.166204,37
4,1,1,1,1.180987,38
4,0,1,0,1.577305,39
4,1,0,0,0.970074,40
4,1,0,0,1.094973,41
4,1,1,1,1.391656,42
4,0,1,0,1.379761,43
4,1,1,1,2.319478,44
4,1,1,1,1.706046,45
4,1,0,0,1.31945,46
4,0,0,1,1.519868,47
4,0,0,1,0.988634,48
4,0,0,1,1.85262,49
4,0,0,1,1.094895,50
4,1,1,1,1.932464,51
4,1,1,1,2.01742,52
4,0,1,0,1.73269,53
4,1,0,0,1.299938,54
4,0,0,1,1.095694,55
4,0,0,1,0.98581,56
4,0,0,1,1.094787,57
4,1,1,1,1.597702,58
4,1,1,1,1.493831,59
4,1,1,1,1.297212,60
4,1,1,1,1.318574,61
4,0,0,1,2.237154,62
4,0,1,0,1.485872,63
4,0,1,0,1.205612,64
4,1,1,1,1.420281,65
4,1,1,1,1.511274,66
4,0,0,1,1.723955,67
4,0,1,0,2.023473,68
4,0,1,0,1.665208,69
4,1,1,1,1.503872,70
4,0,0,1,1.398516,71
4,0,0,1,1.086796,72
4,1,1,1,1.067961,73
4,1,1,1,1.080598,74
4,1,0,0,1.607286,75
4,0,1,0,1.488582,76
4,1,1,1,0.985737,77
4,0,1,0,1.094941,78
4,1,1,1,0.976683,79
4,0,1,0,1.086833,80
4,1,1,1,1.09544,81
4,0,1,0,1.204897,82
4,0,1,0,2.736462,83
4,1,1,1,1.189756,84
4,1,1,1,1.095339,85
4,0,1,0,0.977147,86
4,1,1,1,1.204975,87
4,1,0,0,1.819552,88
4,0,0,1,1.36174,89
4,0,0,1,1.393666,90
4,0,1,0,1.386369,91
4,1,1,1,1.090755,92
4,1,1,1,2.238173,93
4,1,1,1,1.205145,94
4,1,1,1,1.09622,95
4,1,1,1,1.205325,96
4,1,0,0,1.390633,97
4,1,1,1,1.072588,98
4,1,1,1,1.291075,99
4,1,1,1,1.190565,100
4,1,1,1,1.082789,101
4,1,1,1,1.427214,102
4,1,1,1,0.97664,103
4,0,1,0,1.208177,104
4,1,0,0,1.609702,105
4,1,1,1,1.385832,106
4,0,1,0,2.016931,107
4,0,1,0,1.289309,108
4,0,0,1,1.389789,109
4,0,1,0,1.188533,110
4,0,1,0,1.389972,111
4,0,1,0,NA,112
5,1,1,1,1.874032,1
5,1,1,1,1.257672,2
5,1,1,1,1.167463,3
5,1,1,1,1.266726,4
5,1,1,1,1.578726,5
5,1,1,1,1.17257,6
5,1,1,1,1.048632,7
5,1,1,1,1.148568,8
5,1,1,1,1.07085,9
5,0,0,1,1.811363,10
5,1,0,0,1.793807,11
5,1,1,1,1.470519,12
5,1,1,1,1.407662,13
5,1,1,1,2.502019,14
5,0,1,0,1.735817,15
5,1,1,1,1.204051,16
5,0,1,0,1.314702,17
5,1,1,1,1.531287,18
5,0,1,0,2.289641,19
5,0,1,0,1.523528,20
5,0,1,0,1.517115,21
5,1,1,1,0.977169,22
5,0,0,1,1.610432,23
5,0,0,1,1.096138,24
5,1,1,1,1.611168,25
5,0,0,1,1.611029,26
5,1,1,1,1.374219,27
5,1,1,1,1.845127,28
5,0,1,0,0.984905,29
5,1,1,1,0.986069,30
5,1,1,1,1.09401,31
5,0,0,1,1.70406,32
5,0,1,0,1.45441,33
5,1,1,1,1.086586,34
5,0,0,1,1.51274,35
5,0,0,1,1.475285,36
5,0,0,1,1.390779,37
5,0,0,1,1.148869,38
5,0,0,1,1.259081,39
5,0,0,1,1.281473,40
5,0,1,0,1.492635,41
5,0,0,1,3.064803,42
5,0,1,0,1.908028,43
5,0,1,0,1.282422,44
5,0,0,1,1.282465,45
5,1,1,1,1.055404,46
5,1,1,1,1.188471,47
5,0,0,1,2.024041,48
5,1,1,1,1.142203,49
5,0,1,0,1.283164,50
5,0,0,1,1.704882,51
5,1,1,1,1.751381,52
5,1,1,1,0.985412,53
5,0,0,1,1.513807,54
5,1,1,1,2.356201,55
5,1,1,1,2.610952,56
5,1,1,1,1.314417,57
5,1,1,1,1.204864,58
5,0,0,1,1.795605,59
5,0,0,1,1.599083,60
5,1,1,1,1.352881,61
5,1,1,1,1.17257,62
5,1,1,1,1.290085,63
5,0,0,1,1.392721,64
5,1,1,1,1.758218,65
5,1,1,1,1.266401,66
5,1,1,1,1.836794,67
5,0,0,1,1.385605,68
5,0,0,1,1.672972,69
5,0,0,1,1.578522,70
5,1,1,1,1.776054,71
5,1,1,1,2.001096,72
5,0,1,0,1.079696,73
5,0,0,1,1.383277,74
5,0,0,1,1.167461,75
5,1,1,1,1.91453,76
5,0,0,1,1.27784,77
5,0,0,1,1.275803,78
5,0,1,0,1.607025,79
5,0,1,0,1.813878,80
5,0,1,0,1.821362,81
5,1,1,1,2.51444,82
5,0,1,0,0.986235,83
5,1,1,1,1.314159,84
5,1,1,1,1.195827,85
5,0,0,1,1.707866,86
5,1,1,1,1.182421,87
5,1,1,1,1.30543,88
5,0,1,0,1.805729,89
5,1,1,1,0.984576,90
5,1,1,1,0.969882,91
5,1,1,1,1.085249,92
5,1,1,1,1.205001,93
5,0,0,1,2.805755,94
5,1,1,1,1.353345,95
5,1,1,1,1.091631,96
5,0,1,0,0.986696,97
5,0,1,0,1.407962,98
5,0,0,1,1.622766,99
5,1,1,1,1.271766,100
5,0,0,1,1.919974,101
5,0,1,0,1.078628,102
5,0,1,0,1.789357,103
5,0,0,1,1.384078,104
5,1,1,1,NA,105
5,1,1,1,1.3768,106
5,0,0,1,1.696084,107
5,1,1,1,1.173703,108
5,0,1,0,1.861159,109
5,0,1,0,2.492865,110
5,1,1,1,1.423869,111
5,0,1,0,2.236319,112
6,0,0,1,2.388207,1
6,0,0,1,1.408291,2
6,0,0,1,1.097401,3
6,0,0,1,1.645467,4
6,1,1,1,1.727007,5
6,1,1,1,1.168782,6
6,0,1,0,1.080821,7
6,0,1,0,1.530187,8
6,0,1,0,1.529487,9
6,1,1,1,1.200147,10
6,1,1,1,1.319422,11
6,0,0,1,1.930166,12
6,0,0,1,1.082301,13
6,0,0,1,1.094544,14
6,1,1,1,1.846387,15
6,1,1,1,1.071472,16
6,1,1,1,1.298185,17
6,0,0,1,2.053116,18
6,1,1,1,NA,19
6,1,1,1,1.872802,20
6,0,1,0,1.66089,21
6,0,0,1,1.733909,22
6,0,1,0,1.531754,23
6,1,1,1,2.132689,24
6,0,0,1,1.614794,25
6,1,1,1,1.516998,26
6,1,1,1,1.625,27
6,0,0,1,3.083769,28
6,0,1,0,2.365087,29
6,1,1,1,1.709278,30
6,0,0,1,1.603856,31
6,1,1,1,NA,32
6,0,0,1,1.504201,33
6,1,1,1,2.412505,34
6,0,0,1,1.516518,35
6,1,0,0,1.092519,36
6,1,1,1,1.966844,37
6,0,0,1,1.389403,38
6,0,1,0,2.633993,39
6,0,0,1,1.417207,40
6,1,1,1,2.393158,41
6,0,0,1,1.508498,42
6,0,0,1,1.09438,43
6,1,1,1,1.723901,44
6,0,0,1,1.507614,45
6,0,0,1,1.301036,46
6,1,1,1,1.814711,47
6,1,1,1,1.102177,48
6,0,1,0,1.936719,49
6,0,0,1,1.925893,50
6,1,1,1,2.155607,51
6,0,0,1,2.092343,52
6,1,1,1,1.088414,53
6,1,1,1,1.20501,54
6,0,1,0,0.987292,55
6,1,1,1,1.208542,56
6,0,1,0,1.079943,57
6,1,1,1,1.101602,58
6,1,1,1,1.654168,59
6,1,1,1,1.848712,60
6,1,1,1,1.85573,61
6,1,0,0,2.732621,62
6,0,0,1,1.481486,63
6,0,0,1,1.086556,64
6,1,1,1,3.352549,65
6,0,0,1,1.926682,66
6,0,0,1,1.509035,67
6,1,0,0,1.537072,68
6,0,1,0,1.942776,69
6,1,1,1,1.19837,70
6,0,0,1,1.724199,71
6,0,0,1,1.707884,72
6,1,1,1,1.851052,73
6,0,0,1,1.282374,74
6,1,1,1,1.722263,75
6,1,1,1,2.561285,76
6,1,1,1,NA,77
6,1,1,1,1.192804,78
6,1,1,1,1.215369,79
6,0,1,0,1.208026,80
6,1,0,0,1.599298,81
6,0,1,0,2.163091,82
6,0,0,1,1.735862,83
6,0,0,1,1.861558,84
6,1,1,1,2.284172,85
6,1,1,1,1.847874,86
6,0,1,0,1.537042,87
6,1,1,1,1.423679,88
6,0,0,1,1.832723,89
6,1,1,1,1.639313,90
6,0,0,1,1.487973,91
6,0,1,0,2.361501,92
6,0,0,1,1.405051,93
6,1,1,1,1.520696,94
6,1,1,1,2.710299,95
6,1,1,1,NA,96
6,0,0,1,2.265377,97
6,1,1,1,1.098027,98
6,1,1,1,1.305652,99
6,0,0,1,1.742571,100
6,1,1,1,1.827218,101
6,0,0,1,1.864563,102
6,0,0,1,1.421661,103
6,1,1,1,2.583052,104
6,0,0,1,1.614146,105
6,0,0,1,2.025084,106
6,1,1,1,1.833935,107
6,1,1,1,1.869987,108
6,1,1,1,1.641995,109
6,1,1,1,1.090109,110
6,1,1,1,0.859216,111
6,0,0,1,NA,112
7,1,1,1,NA,1
7,0,0,1,1.468041,2
7,0,0,1,1.109254,3
7,0,0,1,1.522091,4
7,0,0,1,1.473249,5
7,0,0,1,2.302133,6
7,1,0,0,1.394121,7
7,0,0,1,1.206117,8
7,0,1,0,1.928912,9
7,1,1,1,1.800241,10
7,0,0,1,1.483294,11
7,0,0,1,0.977205,12
7,1,1,1,1.83636,13
7,1,1,1,1.375246,14
7,0,0,1,0.956873,15
7,0,0,1,1.89481,16
7,1,1,1,1.779674,17
7,0,0,1,1.153074,18
7,0,0,1,1.193329,19
7,1,1,1,1.71308,20
7,0,0,1,2.559571,21
7,0,0,1,1.317392,22
7,1,0,0,2.380479,23
7,0,1,0,2.433704,24
7,1,1,1,1.919145,25
7,0,0,1,1.640381,26
7,1,1,1,2.05149,27
7,1,1,1,1.613979,28
7,0,0,1,1.919431,29
7,0,0,1,1.982402,30
7,0,0,1,4.10484,31
7,0,0,1,1.356523,32
7,0,0,1,1.388168,33
7,1,1,1,1.727072,34
7,0,1,0,1.166864,35
7,1,1,1,1.071053,36
7,1,1,1,2.11939,37
7,0,0,1,1.261851,38
7,1,0,0,2.759196,39
7,0,0,1,2.4367,40
7,1,1,1,1.617199,41
7,1,1,1,1.270245,42
7,1,1,1,2.491596,43
7,0,0,1,1.565178,44
7,0,0,1,1.253548,45
7,1,1,1,2.012842,46
7,1,0,0,2.515689,47
7,1,1,1,1.273862,48
7,1,1,1,1.189331,49
7,1,1,1,1.840989,50
7,1,1,1,1.688547,51
7,0,0,1,1.26606,52
7,1,1,1,NA,53
7,0,0,1,1.717009,54
7,1,1,1,1.734628,55
7,0,0,1,2.318798,56
7,0,0,1,2.681821,57
7,0,1,0,1.801198,58
7,1,1,1,2.012249,59
7,0,0,1,1.395969,60
7,0,0,1,2.296027,61
7,1,1,1,2.054327,62
7,0,0,1,1.168495,63
7,1,1,1,2.31395,64
7,1,1,1,2.192631,65
7,1,1,1,2.538939,66
7,1,1,1,1.891455,67
7,1,1,1,1.916184,68
7,0,0,1,1.613427,69
7,0,0,1,1.101699,70
7,0,0,1,1.079405,71
7,1,1,1,2.250694,72
7,1,0,0,1.897869,73
7,0,0,1,1.768142,74
7,1,0,0,1.510227,75
7,0,0,1,1.482563,76
7,0,0,1,1.308206,77
7,1,1,1,3.023743,78
7,1,1,1,1.606366,79
7,0,0,1,1.606115,80
7,0,0,1,1.094935,81
7,1,1,1,1.694362,82
7,0,1,0,NA,83
7,1,1,1,NA,84
7,1,0,0,NA,85
7,1,0,0,NA,86
7,1,1,1,1.716935,87
7,0,0,1,1.714508,88
7,1,1,1,1.491455,89
7,1,1,1,2.241918,90
7,0,0,1,1.37693,91
7,1,1,1,2.364413,92
7,0,0,1,1.894855,93
7,0,0,1,3.018747,94
7,0,1,0,2.285096,95
7,1,1,1,2.105629,96
7,1,0,0,2.509002,97
7,1,1,1,2.032159,98
7,1,1,1,2.407926,99
7,1,1,1,1.426227,100
7,0,0,1,2.055699,101
7,0,0,1,1.967683,102
7,0,0,1,1.096948,103
7,1,1,1,1.950193,104
7,0,0,1,1.729356,105
7,0,0,1,1.655435,106
7,1,0,0,1.871604,107
7,1,1,1,2.260312,108
7,1,1,1,2.523059,109
7,0,0,1,2.117111,110
7,0,0,1,1.210932,111
7,1,1,1,2.159883,112
8,0,0,1,1.06082,1
8,0,0,1,0.753655,2
8,0,0,1,0.761287,3
8,0,1,0,0.951435,4
8,1,1,1,1.347908,5
8,0,0,1,0.985018,6
8,0,1,0,0.751448,7
8,0,0,1,1.172352,8
8,1,0,0,0.439217,9
8,1,0,0,0.438522,10
8,1,0,0,0.548933,11
8,1,1,1,0.842108,12
8,1,0,0,1.374663,13
8,0,1,0,1.792595,14
8,1,0,0,NA,15
8,0,0,1,1.695203,16
8,1,1,1,1.58991,17
8,0,0,1,1.372269,18
8,0,0,1,0.985909,19
8,1,0,0,1.857833,20
8,0,0,1,2.316236,21
8,0,0,1,1.079281,22
8,1,1,1,1.273091,23
8,0,1,0,1.103612,24
8,1,1,1,0.772013,25
8,0,1,0,2.322451,26
8,1,1,1,1.082772,27
8,1,0,0,0.769688,28
8,0,0,1,1.791661,29
8,1,0,0,1.53409,30
8,1,0,0,1.93717,31
8,0,0,1,0.439137,32
8,1,0,0,0.877128,33
8,0,0,1,0.877496,34
8,1,0,0,0.541234,35
8,0,0,1,0.756057,36
8,1,1,1,2.188043,37
8,0,0,1,1.595207,38
8,1,1,1,1.213473,39
8,0,0,1,1.498346,40
8,1,0,0,1.36274,41
8,0,0,1,1.320819,42
8,1,0,0,1.426341,43
8,0,0,1,1.098433,44
8,1,1,1,1.514898,45
8,1,0,0,2.248537,46
8,0,1,0,1.884883,47
8,0,1,0,1.294626,48
8,1,0,0,1.526749,49
8,0,0,1,0.43037,50
8,1,1,1,0.433416,51
8,0,0,1,0.428719,52
8,0,1,0,0.441643,53
8,1,1,1,0.433089,54
8,1,0,0,0.434872,55
8,1,1,1,0.429817,56
8,1,0,0,0.736183,57
8,0,1,0,0.946018,58
8,0,1,0,NA,59
8,0,1,0,0.244147,60
8,1,0,0,0.868482,61
8,0,0,1,0.439243,62
8,1,1,1,1.095764,63
8,1,1,1,0.955568,64
8,1,1,1,2.123309,65
8,0,1,0,2.395985,66
8,0,1,0,1.427813,67
8,1,0,0,1.504249,68
8,0,0,1,0.429947,69
8,0,1,0,0.643561,70
8,0,0,1,0.962707,71
8,0,0,1,0.435096,72
8,0,1,0,2.356288,73
8,0,0,1,2.155041,74
8,0,0,1,0.439123,75
8,1,0,0,NA,76
8,0,1,0,2.281601,77
8,0,0,1,1.829509,78
8,1,0,0,1.181903,79
8,1,0,0,0.980608,80
8,1,0,0,0.754966,81
8,0,1,0,2.34659,82
8,1,1,1,0.658082,83
8,0,0,1,1.693971,84
8,1,0,0,1.280239,85
8,1,1,1,0.953757,86
8,1,1,1,NA,87
8,0,1,0,0.341059,88
8,1,1,1,0.24143,89
8,0,1,0,0.245832,90
8,1,0,0,2.630074,91
8,1,0,0,NA,92
8,0,0,1,1.080079,93
8,1,0,0,1.058786,94
8,1,1,1,1.065979,95
8,1,1,1,0.658798,96
8,1,0,0,1.162897,97
8,1,1,1,0.652023,98
8,0,1,0,0.429469,99
8,1,1,1,0.429024,100
8,0,0,1,0.539533,101
8,1,0,0,1.365491,102
8,1,0,0,0.752783,103
8,0,1,0,0.984703,104
8,0,1,0,NA,105
8,0,0,1,0.574499,106
8,1,1,1,0.648977,107
8,0,0,1,1.074493,108
8,1,1,1,0.954285,109
8,1,0,0,0.97156,110
8,0,0,1,0.430651,111
8,0,0,1,1.49294,112
9,0,0,1,1.883848,1
9,1,1,1,1.519579,2
9,1,1,1,1.323183,3
9,1,1,1,1.179873,4
9,1,1,1,1.215804,5
9,0,0,1,1.492885,6
9,1,1,1,1.38354,7
9,0,1,0,NA,8
9,1,1,1,1.190001,9
9,0,0,1,1.400938,10
9,1,1,1,1.487809,11
9,0,0,1,1.384442,12
9,1,1,1,1.409637,13
9,0,0,1,1.401383,14
9,1,1,1,1.716662,15
9,1,1,1,1.101622,16
9,0,0,1,NA,17
9,1,1,1,1.301302,18
9,0,0,1,1.41972,19
9,1,1,1,1.609672,20
9,1,1,1,NA,21
9,1,1,1,1.216993,22
9,1,1,1,1.325431,23
9,0,0,1,1.501452,24
9,0,0,1,1.18393,25
9,0,1,0,NA,26
9,1,1,1,1.182384,27
9,1,1,1,1.200699,28
9,0,0,1,1.36073,29
9,0,0,1,1.528918,30
9,0,0,1,1.200573,31
9,0,0,1,1.07296,32
9,0,0,1,2.197243,33
9,0,0,1,1.327903,34
9,0,0,1,1.427229,35
9,1,1,1,1.641691,36
9,1,1,1,NA,37
9,1,1,1,1.525831,38
9,1,1,1,1.188959,39
9,1,1,1,1.530123,40
9,0,0,1,1.316228,41
9,1,1,1,NA,42
9,0,0,1,1.303024,43
9,0,0,1,1.209258,44
9,1,1,1,1.515151,45
9,1,1,1,1.628946,46
9,1,0,0,1.646442,47
9,0,0,1,1.103242,48
9,0,0,1,1.40604,49
9,0,0,1,2.183481,50
9,1,1,1,1.831791,51
9,1,1,1,1.319439,52
9,0,0,1,1.31107,53
9,0,0,1,1.197481,54
9,0,0,1,1.095253,55
9,1,1,1,1.617879,56
9,0,0,1,1.517677,57
9,0,0,1,1.293518,58
9,1,1,1,NA,59
9,1,1,1,1.615216,60
9,0,0,1,1.59281,61
9,1,1,1,1.393224,62
9,0,0,1,1.509853,63
9,1,1,1,1.531217,64
9,0,0,1,1.411238,65
9,1,1,1,1.950072,66
9,0,0,1,1.498209,67
9,0,0,1,1.211541,68
9,0,0,1,1.087403,69
9,1,1,1,1.732753,70
9,0,1,0,NA,71
9,0,0,1,1.191569,72
9,1,1,1,1.514943,73
9,0,0,1,1.521439,74
9,1,1,1,1.942855,75
9,0,0,1,1.404544,76
9,0,0,1,1.208849,77
9,0,0,1,1.095684,78
9,1,1,1,1.512425,79
9,0,0,1,1.401043,80
9,1,1,1,1.386132,81
9,1,1,1,1.10605,82
9,0,1,0,1.530371,83
9,0,0,1,1.393473,84
9,0,0,1,1.207893,85
9,0,0,1,1.322691,86
9,1,1,1,1.59495,87
9,0,0,1,1.610452,88
9,1,1,1,NA,89
9,1,1,1,1.311546,90
9,1,1,1,2.19862,91
9,0,0,1,1.787481,92
9,1,1,1,1.825144,93
9,1,1,1,1.745219,94
9,1,1,1,1.210893,95
9,1,1,1,1.427291,96
9,1,1,1,1.538726,97
9,1,0,0,1.493088,98
9,0,0,1,1.279324,99
9,0,0,1,1.741271,100
9,0,0,1,1.204495,101
9,0,1,0,1.855629,102
9,1,1,1,1.32148,103
9,0,0,1,1.41812,104
9,0,0,1,1.429959,105
9,1,1,1,1.625266,106
9,1,1,1,1.432843,107
9,0,0,1,1.511166,108
9,1,1,1,1.395003,109
9,1,1,1,1.978659,110
9,1,1,1,1.740722,111
9,0,0,1,1.520341,112
10,0,1,0,1.840293,1
10,0,0,1,NA,2
10,0,0,1,1.41928,3
10,0,0,1,1.101928,4
10,1,1,1,1.621036,5
10,1,1,1,1.093347,6
10,1,1,1,1.098164,7
10,1,1,1,1.209317,8
10,0,1,0,NA,9
10,1,1,1,1.396061,10
10,0,1,0,1.310212,11
10,0,0,1,1.617511,12
10,0,1,0,1.628678,13
10,1,1,1,1.714992,14
10,1,1,1,1.082756,15
10,0,0,1,1.932348,16
10,0,1,0,1.830946,17
10,0,1,0,0.664304,18
10,1,1,1,1.406042,19
10,0,0,1,1.494846,20
10,1,1,1,1.05583,21
10,0,1,0,1.204948,22
10,0,0,1,1.736586,23
10,1,1,1,1.076691,24
10,1,1,1,1.816937,25
10,0,0,1,1.399838,26
10,1,1,1,1.189516,27
10,1,1,1,0.876163,28
10,1,1,1,1.09857,29
10,0,1,0,1.937794,30
10,0,1,0,0.864223,31
10,1,1,1,0.979155,32
10,0,1,0,0.97094,33
10,0,1,0,0.863936,34
10,1,1,1,1.086269,35
10,1,1,1,0.977292,36
10,0,1,0,0.876645,37
10,1,1,1,0.876103,38
10,1,1,1,0.877173,39
10,1,1,1,0.767122,40
10,1,1,1,0.764999,41
10,0,1,0,0.872399,42
10,0,0,1,1.379739,43
10,0,0,1,1.409596,44
10,1,1,1,0.972706,45
10,0,1,0,0.771278,46
10,0,1,0,0.767407,47
10,1,1,1,1.100913,48
10,0,1,0,1.21445,49
10,1,1,1,1.190092,50
10,1,1,1,0.755921,51
10,1,1,1,0.989932,52
10,1,1,1,0.877452,53
10,1,1,1,0.76708,54
10,0,1,0,0.767604,55
10,1,1,1,0.767755,56
10,0,1,0,0.882165,57
10,1,1,1,0.658029,58
10,1,1,1,0.983234,59
10,1,1,1,0.877416,60
10,0,1,0,0.767755,61
10,1,1,1,0.770399,62
10,1,1,1,0.767293,63
10,0,1,0,0.758547,64
10,1,1,1,0.770962,65
10,0,1,0,0.657222,66
10,1,1,1,0.996657,67
10,0,1,0,1.538729,68
10,0,1,0,1.303372,69
10,0,1,0,0.878175,70
10,1,1,1,1.216334,71
10,1,1,1,1.283202,72
10,1,1,1,1.088144,73
10,1,1,1,0.869329,74
10,0,1,0,1.728224,75
10,1,1,1,0.97706,76
10,1,0,0,1.847394,77
10,1,1,1,0.970235,78
10,0,1,0,0.539791,79
10,1,1,1,0.880288,80
10,0,1,0,0.74267,81
10,1,1,1,0.767677,82
10,1,1,1,0.876943,83
10,0,1,0,0.877425,84
10,0,1,0,0.755372,85
10,0,1,0,0.861254,86
10,1,1,1,0.861241,87
10,0,1,0,0.767975,88
10,0,1,0,0.767934,89
10,1,1,1,0.864767,90
10,0,1,0,0.757317,91
10,0,1,0,0.648838,92
10,0,1,0,0.658873,93
10,1,1,1,0.774141,94
10,0,1,0,0.771388,95
10,0,1,0,0.771182,96
10,0,1,0,1.095132,97
10,0,1,0,0.877156,98
10,1,1,1,0.880772,99
10,0,1,0,0.657783,100
10,0,0,1,1.486435,101
10,1,1,1,1.087208,102
10,1,1,1,0.439685,103
10,1,1,1,0.757364,104
10,0,1,0,0.65817,105
10,1,1,1,0.767802,106
10,0,1,0,0.658165,107
10,1,1,1,0.439201,108
10,0,1,0,0.430216,109
10,1,1,1,0.429349,110
10,0,1,0,NA,111
10,0,1,0,0.658975,112
11,0,0,1,2.508129,1
11,0,0,1,0.972287,2
11,1,1,1,1.588812,3
11,0,0,1,1.551667,4
11,1,0,0,1.196056,5
11,1,1,1,1.632179,6
11,1,0,0,1.706911,7
11,0,0,1,NA,8
11,1,1,1,2.083245,9
11,0,0,1,1.686357,10
11,0,1,0,1.783496,11
11,1,1,1,0.872409,12
11,0,0,1,1.282132,13
11,0,0,1,1.08569,14
11,0,0,1,0.872816,15
11,1,1,1,1.280636,16
11,1,1,1,NA,17
11,0,1,0,2.216729,18
11,1,1,1,1.17324,19
11,0,0,1,1.268973,20
11,0,0,1,1.076881,21
11,1,0,0,0.878506,22
11,0,0,1,0.99085,23
11,1,1,1,0.961761,24
11,0,1,0,0.985812,25
11,0,0,1,2.076034,26
11,0,0,1,0.974704,27
11,0,0,1,1.085432,28
11,1,1,1,2.248874,29
11,0,0,1,1.657593,30
11,0,0,1,2.154699,31
11,1,1,1,1.811183,32
11,0,0,1,1.330755,33
11,0,1,0,2.136337,34
11,0,0,1,1.396875,35
11,0,0,1,0.968668,36
11,0,1,0,1.153138,37
11,0,1,0,0.861028,38
11,0,0,1,1.057038,39
11,0,0,1,1.198865,40
11,1,0,0,2.303252,41
11,1,0,0,1.094059,42
11,0,0,1,1.204035,43
11,1,0,0,0.879526,44
11,1,0,0,2.010089,45
11,0,0,1,1.476674,46
11,0,1,0,1.273307,47
11,0,0,1,1.53182,48
11,0,1,0,1.282827,49
11,0,0,1,1.059107,50
11,1,0,0,3.06199,51
11,1,1,1,1.608342,52
11,1,1,1,1.06238,53
11,1,1,1,0.97979,54
11,1,1,1,1.722128,55
11,0,1,0,1.388769,56
11,0,0,1,1.47019,57
11,1,1,1,1.066438,58
11,1,0,0,0.872908,59
11,1,1,1,0.752957,60
11,1,0,0,1.789113,61
11,0,0,1,1.073552,62
11,1,0,0,0.991727,63
11,1,1,1,1.371524,64
11,0,1,0,1.187091,65
11,1,1,1,1.079159,66
11,0,1,0,0.989471,67
11,0,1,0,0.965456,68
11,1,1,1,0.974111,69
11,0,1,0,0.876597,70
11,0,0,1,1.168312,71
11,0,0,1,0.854661,72
11,0,0,1,0.876316,73
11,1,0,0,0.873268,74
11,1,1,1,1.071506,75
11,0,0,1,1.477262,76
11,1,1,1,1.051781,77
11,1,0,0,1.250711,78
11,1,0,0,1.715857,79
11,0,1,0,1.2553,80
11,1,1,1,1.06705,81
11,0,1,0,1.634904,82
11,0,0,1,2.021959,83
11,1,1,1,1.473008,84
11,1,1,1,1.152482,85
11,1,1,1,0.544484,86
11,1,1,1,0.848283,87
11,0,0,1,1.60371,88
11,0,0,1,0.974069,89
11,1,1,1,1.713294,90
11,1,1,1,0.958393,91
11,0,1,0,1.065229,92
11,1,1,1,0.856313,93
11,1,1,1,2.72455,94
11,1,1,1,0.875763,95
11,0,1,0,0.76802,96
11,0,0,1,1.065002,97
11,1,0,0,0.773945,98
11,0,0,1,0.767927,99
11,1,0,0,0.770767,100
11,1,0,0,2.087591,101
11,0,0,1,1.461295,102
11,1,1,1,1.899948,103
11,1,1,1,1.182678,104
11,1,0,0,1.631692,105
11,0,1,0,1.469801,106
11,1,0,0,1.163168,107
11,1,1,1,1.156146,108
11,1,0,0,1.165731,109
11,1,1,1,1.073471,110
11,1,1,1,1.380086,111
11,0,1,0,1.270696,112
12,1,0,0,NA,1
12,0,0,1,1.380917,2
12,1,1,1,2.249004,3
12,0,0,1,1.236936,4
12,1,1,1,1.500485,5
12,0,0,1,1.797087,6
12,1,1,1,1.930381,7
12,1,1,1,2.194227,8
12,0,0,1,1.375352,9
12,1,0,0,1.455488,10
12,0,0,1,0.959957,11
12,1,1,1,1.606675,12
12,1,1,1,1.358247,13
12,1,0,0,1.258538,14
12,1,0,0,1.306008,15
12,1,0,0,1.181265,16
12,0,0,1,1.062066,17
12,0,1,0,1.506638,18
12,0,0,1,1.157467,19
12,1,1,1,1.589484,20
12,0,0,1,1.149557,21
12,0,0,1,1.069037,22
12,1,0,0,1.381955,23
12,1,1,1,NA,24
12,1,0,0,1.354149,25
12,0,0,1,1.247564,26
12,0,0,1,1.552223,27
12,0,0,1,1.167022,28
12,0,0,1,1.257808,29
12,1,1,1,1.271369,30
12,1,1,1,1.584087,31
12,0,0,1,1.185304,32
12,0,0,1,1.355747,33
12,1,1,1,1.605194,34
12,0,0,1,1.256198,35
12,1,1,1,1.498074,36
12,0,0,1,1.378626,37
12,0,0,1,1.281207,38
12,0,0,1,1.478937,39
12,1,1,1,1.729225,40
12,0,0,1,1.271968,41
12,1,1,1,NA,42
12,1,1,1,1.776355,43
12,0,0,1,1.34455,44
12,1,0,0,NA,45
12,0,0,1,NA,46
12,0,1,0,1.629078,47
12,0,0,1,1.281741,48
12,1,0,0,1.266107,49
12,0,0,1,1.146067,50
12,1,1,1,1.374956,51
12,0,0,1,1.187345,52
12,1,1,1,1.262002,53
12,0,0,1,1.263634,54
12,1,1,1,1.48105,55
12,1,1,1,1.379093,56
12,0,0,1,1.16589,57
12,1,1,1,NA,58
12,0,1,0,1.594184,59
12,0,0,1,1.192836,60
12,1,1,1,1.70532,61
12,0,0,1,1.297584,62
12,0,0,1,1.158557,63
12,1,1,1,1.509348,64
12,1,1,1,1.480796,65
12,0,0,1,1.265497,66
12,0,0,1,1.281782,67
12,0,0,1,1.477769,68
12,0,0,1,1.180606,69
12,1,1,1,2.019823,70
12,1,0,0,1.718988,71
12,1,1,1,1.597212,72
12,1,1,1,1.373299,73
12,0,0,1,1.809473,74
12,1,0,0,1.72599,75
12,0,0,1,2.212946,76
12,0,0,1,2.25197,77
12,0,0,1,1.943539,78
12,0,0,1,1.273157,79
12,1,1,1,1.616607,80
12,0,0,1,1.917122,81
12,0,0,1,1.275722,82
12,0,0,1,1.189873,83
12,1,1,1,1.471213,84
12,1,1,1,2.048278,85
12,1,1,1,1.909198,86
12,1,1,1,NA,87
12,1,1,1,1.689589,88
12,1,1,1,1.705091,89
12,0,0,1,1.377124,90
12,0,0,1,2.121008,91
12,1,1,1,1.404969,92
12,0,0,1,1.168299,93
12,1,1,1,1.497136,94
12,0,0,1,1.717557,95
12,0,0,1,1.300453,96
12,0,0,1,1.288385,97
12,1,0,0,1.181651,98
12,1,1,1,1.678928,99
12,0,0,1,1.487004,100
12,1,1,1,1.477074,101
12,0,0,1,1.280241,102
12,0,0,1,1.426689,103
12,1,1,1,1.388753,104
12,1,1,1,1.602712,105
12,0,0,1,1.158577,106
12,0,0,1,1.411256,107
12,1,1,1,2.012863,108
12,1,1,1,1.40457,109
12,1,0,0,1.727482,110
12,1,1,1,1.498087,111
12,1,1,1,1.715951,112
13,0,0,1,1.798608,1
13,1,1,1,2.236562,2
13,0,1,0,1.738948,3
13,0,1,0,NA,4
13,1,1,1,2.97171,5
13,1,1,1,1.766907,6
13,0,0,1,2.926999,7
13,0,0,1,1.822036,8
13,0,0,1,1.311388,9
13,1,1,1,1.721312,10
13,0,0,1,1.60711,11
13,0,0,1,1.273754,12
13,1,1,1,1.492127,13
13,1,1,1,1.384893,14
13,0,1,0,1.525255,15
13,1,1,1,1.755181,16
13,1,1,1,2.279901,17
13,1,1,1,1.405809,18
13,1,1,1,1.652409,19
13,1,1,1,1.429126,20
13,1,1,1,1.531443,21
13,0,0,1,1.621824,22
13,0,0,1,3.099667,23
13,0,0,1,1.880153,24
13,0,0,1,2.739601,25
13,0,0,1,1.878839,26
13,1,1,1,1.730001,27
13,1,1,1,1.315237,28
13,1,1,1,2.745013,29
13,0,0,1,1.600273,30
13,1,1,1,1.513087,31
13,0,0,1,2.63113,32
13,1,1,1,2.082479,33
13,1,1,1,2.876278,34
13,1,1,1,1.302465,35
13,1,1,1,1.548806,36
13,0,0,1,2.719509,37
13,0,1,0,2.264151,38
13,1,1,1,1.550867,39
13,0,0,1,1.617887,40
13,0,0,1,2.502138,41
13,0,0,1,1.975323,42
13,0,0,1,1.721882,43
13,0,0,1,1.520765,44
13,0,0,1,1.524997,45
13,1,1,1,1.716971,46
13,1,1,1,2.223535,47
13,1,1,1,1.654581,48
13,1,1,1,1.424817,49
13,1,1,1,1.848851,50
13,0,0,1,1.624266,51
13,0,0,1,1.32052,52
13,0,0,1,1.760111,53
13,1,1,1,1.809257,54
13,1,1,1,1.540064,55
13,1,1,1,1.543148,56
13,1,1,1,1.861826,57
13,0,0,1,1.637242,58
13,0,0,1,1.516726,59
13,1,1,1,3.1413,60
13,0,0,1,1.702204,61
13,1,1,1,1.80107,62
13,1,1,1,3.007705,63
13,0,0,1,2.146889,64
13,1,1,1,1.915812,65
13,0,0,1,1.853222,66
13,1,1,1,1.831413,67
13,0,0,1,2.064335,68
13,0,1,0,1.595088,69
13,0,0,1,1.577312,70
13,0,0,1,1.525486,71
13,1,1,1,2.064759,72
13,0,0,1,1.395676,73
13,1,1,1,1.609274,74
13,0,0,1,1.609043,75
13,1,1,1,1.623682,76
13,0,0,1,1.490652,77
13,1,1,1,2.174451,78
13,1,1,1,1.539825,79
13,0,0,1,1.844975,80
13,0,0,1,1.287813,81
13,0,0,1,1.398844,82
13,1,1,1,NA,83
13,1,1,1,1.4320600000000001,84
13,1,1,1,1.418506,85
13,0,1,0,1.648383,86
13,0,0,1,1.621572,87
13,0,0,1,1.295128,88
13,0,0,1,1.402279,89
13,0,0,1,3.019973,90
13,0,0,1,1.772475,91
13,1,1,1,1.93699,92
13,1,0,0,2.052012,93
13,0,0,1,1.320593,94
13,1,1,1,1.820724,95
13,1,1,1,1.735243,96
13,0,0,1,1.831955,97
13,1,1,1,3.033931,98
13,0,0,1,2.041894,99
13,1,1,1,1.627439,100
13,1,0,0,NA,101
13,0,1,0,1.317443,102
13,1,1,1,2.432577,103
13,0,0,1,1.52813,104
13,1,1,1,3.052155,105
13,0,0,1,NA,106
13,1,1,1,2.3502710000000002,107
13,1,1,1,1.416536,108
13,0,1,0,2.84998,109
13,1,1,1,2.390051,110
13,0,0,1,1.696687,111
13,1,1,1,1.701212,112
14,0,1,0,2.784421,1
14,0,1,0,1.964619,2
14,1,1,1,2.177668,3
14,1,1,1,1.420902,4
14,1,1,1,1.206513,5
14,0,0,1,1.927943,6
14,0,1,0,1.406994,7
14,0,0,1,1.516919,8
14,0,0,1,1.260471,9
14,0,0,1,1.192281,10
14,0,0,1,0.989126,11
14,0,1,0,1.829503,12
14,0,1,0,1.745872,13
14,0,0,1,1.79922,14
14,0,0,1,3.135027,15
14,0,0,1,1.095144,16
14,1,1,1,1.830933,17
14,0,0,1,1.890964,18
14,1,1,1,1.51026,19
14,1,1,1,1.203155,20
14,1,1,1,1.308113,21
14,1,1,1,2.183017,22
14,0,0,1,2.145251,23
14,1,1,1,1.598949,24
14,0,1,0,1.407364,25
14,1,1,1,1.970775,26
14,1,1,1,1.409112,27
14,1,1,1,1.527028,28
14,0,1,0,2.832725,29
14,1,1,1,1.31681,30
14,0,1,0,1.201035,31
14,1,1,1,1.20416,32
14,1,1,1,1.208133,33
14,1,1,1,1.095384,34
14,0,0,1,1.728109,35
14,0,0,1,1.094412,36
14,0,0,1,1.529859,37
14,0,1,0,2.379736,38
14,1,1,1,1.195855,39
14,1,1,1,1.183402,40
14,1,1,1,1.531707,41
14,1,1,1,1.613889,42
14,1,1,1,1.321318,43
14,1,1,1,1.204842,44
14,0,1,0,1.535784,45
14,0,0,1,2.723301,46
14,0,1,0,1.515998,47
14,1,1,1,1.640942,48
14,0,0,1,2.1678,49
14,0,0,1,1.305172,50
14,1,1,1,1.516932,51
14,1,1,1,3.171063,52
14,0,0,1,3.356202,53
14,0,1,0,1.71263,54
14,1,1,1,1.297294,55
14,1,1,1,1.205471,56
14,0,1,0,3.160751,57
14,1,1,1,1.532245,58
14,1,1,1,1.205115,59
14,0,0,1,1.504463,60
14,1,1,1,1.614617,61
14,1,1,1,1.173308,62
14,0,0,1,3.949531,63
14,1,0,0,NA,64
14,0,1,0,1.607691,65
14,0,0,1,1.990786,66
14,0,1,0,2.048274,67
14,0,0,1,1.489413,68
14,1,1,1,2.535983,69
14,1,1,1,1.848967,70
14,1,1,1,1.195594,71
14,1,1,1,1.095286,72
14,0,0,1,3.324751,73
14,1,1,1,1.286039,74
14,1,1,1,1.204388,75
14,0,1,0,1.096221,76
14,1,1,1,1.088039,77
14,0,1,0,1.098388,78
14,0,1,0,1.094733,79
14,0,0,1,1.630122,80
14,0,1,0,1.924811,81
14,1,1,1,1.165058,82
14,1,1,1,0.976146,83
14,1,1,1,0.986671,84
14,1,1,1,0.985795,85
14,0,1,0,1.754276,86
14,0,1,0,1.537326,87
14,0,1,0,0.972279,88
14,1,1,1,0.985834,89
14,1,1,1,1.204596,90
14,1,1,1,1.317321,91
14,1,1,1,1.642642,92
14,1,1,1,1.314389,93
14,1,1,1,2.896746,94
14,1,1,1,1.950546,95
14,0,1,0,2.08421,96
14,0,1,0,1.641346,97
14,0,1,0,1.296594,98
14,1,1,1,NA,99
14,1,1,1,2.958453,100
14,1,0,0,1.713778,101
14,1,1,1,1.291912,102
14,0,0,1,1.615388,103
14,0,1,0,NA,104
14,0,0,1,1.600761,105
14,0,0,1,1.582006,106
14,1,1,1,1.91925,107
14,0,0,1,1.886978,108
14,0,0,1,1.480341,109
14,0,0,1,2.0754,110
14,1,1,1,2.27168,111
14,0,0,1,1.495313,112
15,0,0,1,2.183102,1
15,1,1,1,1.617243,2
15,0,1,0,1.205378,3
15,1,1,1,1.094143,4
15,1,1,1,1.091893,5
15,1,1,1,1.085222,6
15,1,1,1,0.983788,7
15,0,1,0,1.416132,8
15,1,1,1,1.194931,9
15,0,1,0,1.42388,10
15,0,1,0,1.64496,11
15,0,1,0,1.286338,12
15,1,1,1,1.3115,13
15,1,1,1,1.199804,14
15,1,1,1,1.188371,15
15,1,1,1,1.207516,16
15,0,0,1,1.712288,17
15,0,1,0,1.174839,18
15,1,1,1,1.384939,19
15,0,1,0,1.094626,20
15,1,1,1,1.864265,21
15,0,1,0,1.098173,22
15,0,0,1,NA,23
15,1,1,1,1.18879,24
15,1,1,1,1.208025,25
15,0,0,1,2.39507,26
15,0,0,1,1.394332,27
15,0,0,1,2.29737,28
15,0,1,0,2.045784,29
15,1,1,1,1.284978,30
15,1,1,1,1.094859,31
15,0,1,0,0.989398,32
15,0,1,0,1.195939,33
15,1,1,1,1.207036,34
15,1,1,1,1.860967,35
15,0,1,0,1.199384,36
15,0,1,0,NA,37
15,0,0,1,1.610765,38
15,0,1,0,1.168752,39
15,1,1,1,1.203963,40
15,0,1,0,1.198835,41
15,1,1,1,1.199094,42
15,0,1,0,1.09513,43
15,1,1,1,1.098546,44
15,0,1,0,3.064244,45
15,1,1,1,NA,46
15,1,1,1,1.422421,47
15,0,1,0,NA,48
15,1,1,1,1.414531,49
15,0,1,0,1.284376,50
15,0,0,1,2.392285,51
15,0,0,1,2.558843,52
15,1,1,1,1.720366,53
15,1,1,1,1.205093,54
15,1,1,1,1.399369,55
15,0,0,1,1.7118,56
15,1,1,1,1.62672,57
15,1,1,1,1.964311,58
15,1,1,1,0.980091,59
15,0,1,0,0.975319,60
15,1,1,1,0.867357,61
15,1,1,1,0.972191,62
15,1,1,1,1.29025,63
15,1,1,1,1.520847,64
15,1,1,1,1.504876,65
15,0,1,0,1.084656,66
15,1,1,1,1.194666,67
15,1,1,1,1.412333,68
15,0,1,0,1.084816,69
15,0,1,0,1.634463,70
15,0,1,0,1.086204,71
15,1,1,1,1.313917,72
15,1,1,1,2.192032,73
15,1,1,1,2.189633,74
15,1,1,1,1.423306,75
15,1,1,1,1.09573,76
15,1,1,1,1.314291,77
15,0,0,1,2.790373,78
15,0,1,0,NA,79
15,0,1,0,NA,80
15,1,1,1,1.5322,81
15,0,1,0,0.766733,82
15,0,1,0,0.980273,83
15,0,1,0,0.875938,84
15,0,1,0,0.867723,85
15,1,1,1,1.20488,86
15,0,1,0,0.98623,87
15,0,1,0,1.095657,88
15,1,1,1,1.205592,89
15,1,1,1,1.413986,90
15,0,1,0,1.089563,91
15,0,1,0,NA,92
15,0,0,1,NA,93
15,0,1,0,1.1581,94
15,1,1,1,1.50886,95
15,0,0,1,2.455434,96
15,0,1,0,3.38299,97
15,0,0,1,2.056548,98
15,0,0,1,2.163208,99
15,1,1,1,1.6211,100
15,1,1,1,1.179839,101
15,0,1,0,1.379559,102
15,1,1,1,1.298757,103
15,0,0,1,1.721244,104
15,1,1,1,1.080461,105
15,1,1,1,0.980276,106
15,0,1,0,1.957755,107
15,1,1,1,1.861469,108
15,0,1,0,1.533416,109
15,1,1,1,1.094531,110
15,1,1,1,0.882842,111
15,0,0,1,2.484347,112
16,1,1,1,NA,1
16,1,1,1,NA,2
16,1,1,1,2.402482,3
16,0,0,1,1.734282,4
16,0,0,1,1.094035,5
16,1,1,1,1.937528,6
16,1,1,1,1.514483,7
16,1,1,1,0.986216,8
16,0,0,1,1.389159,9
16,0,0,1,1.581535,10
16,0,0,1,1.173647,11
16,1,1,1,2.430029,12
16,0,0,1,2.253266,13
16,0,1,0,1.271626,14
16,1,1,1,1.364043,15
16,0,0,1,1.276158,16
16,1,1,1,0.96704,17
16,1,1,1,1.159416,18
16,0,0,1,1.288538,19
16,1,1,1,1.735272,20
16,1,1,1,1.474123,21
16,1,1,1,2.578706,22
16,0,0,1,1.512361,23
16,0,0,1,1.481385,24
16,0,0,1,0.989357,25
16,0,1,0,1.614183,26
16,1,1,1,1.91558,27
16,0,0,1,1.295077,28
16,1,1,1,1.956971,29
16,0,0,1,1.364663,30
16,0,0,1,1.175631,31
16,1,1,1,1.481848,32
16,0,0,1,1.449247,33
16,1,1,1,1.255981,34
16,0,0,1,1.480313,35
16,0,0,1,1.456017,36
16,0,0,1,1.270313,37
16,0,1,0,1.935384,38
16,0,0,1,1.587435,39
16,1,1,1,1.581373,40
16,1,1,1,1.21309,41
16,1,1,1,1.078241,42
16,0,0,1,1.703767,43
16,0,0,1,1.831988,44
16,1,1,1,NA,45
16,1,1,1,2.435206,46
16,0,0,1,1.50566,47
16,1,1,1,1.241178,48
16,0,0,1,1.280778,49
16,0,0,1,1.259387,50
16,1,1,1,1.507258,51
16,0,0,1,1.299978,52
16,1,1,1,1.247763,53
16,1,1,1,1.380955,54
16,1,1,1,1.299051,55
16,1,1,1,1.318134,56
16,0,0,1,1.292217,57
16,1,1,1,1.154115,58
16,0,0,1,1.626958,59
16,1,1,1,1.395286,60
16,0,0,1,1.281977,61
16,0,0,1,2.335553,62
16,0,0,1,NA,63
16,1,1,1,1.402629,64
16,0,0,1,1.292886,65
16,0,0,1,1.448045,66
16,1,1,1,NA,67
16,0,0,1,2.002992,68
16,1,1,1,1.250781,69
16,0,0,1,1.469095,70
16,1,1,1,2.036905,71
16,0,0,1,1.400625,72
16,0,0,1,1.286395,73
16,0,0,1,1.303876,74
16,1,1,1,1.510596,75
16,0,1,0,1.099489,76
16,1,1,1,1.195861,77
16,1,1,1,1.104076,78
16,0,0,1,1.409919,79
16,1,1,1,1.577675,80
16,1,1,1,1.099994,81
16,0,0,1,2.066422,82
16,1,1,1,1.074068,83
16,1,1,1,1.201598,84
16,0,0,1,1.295471,85
16,1,1,1,1.299144,86
16,1,0,0,1.721325,87
16,1,1,1,1.757252,88
16,1,1,1,1.096996,89
16,0,0,1,1.517457,90
16,0,1,0,2.01608,91
16,1,1,1,1.329147,92
16,1,1,1,1.080335,93
16,1,1,1,0.971286,94
16,1,1,1,1.749163,95
16,1,0,0,NA,96
16,1,1,1,1.075335,97
16,0,0,1,1.491433,98
16,0,0,1,1.297503,99
16,1,1,1,1.219857,100
16,0,1,0,1.509602,101
16,1,1,1,1.098217,102
16,0,0,1,1.602816,103
16,0,0,1,2.021831,104
16,1,1,1,1.481758,105
16,1,1,1,1.19419,106
16,0,0,1,1.79669,107
16,0,0,1,1.359527,108
16,1,1,1,1.605816,109
16,0,1,0,1.424331,110
16,0,1,0,1.302344,111
16,0,1,0,NA,112
17,0,1,0,NA,1
17,1,1,1,1.192499,2
17,1,1,1,1.102782,3
17,1,1,1,1.201915,4
17,1,1,1,1.649536,5
17,1,1,1,1.187655,6
17,0,0,1,1.503673,7
17,1,1,1,NA,8
17,1,1,1,0.979277,9
17,0,0,1,1.592188,10
17,0,0,1,1.09792,11
17,1,1,1,1.58616,12
17,0,0,1,1.590547,13
17,1,1,1,1.52664,14
17,1,1,1,1.206627,15
17,0,0,1,NA,16
17,0,1,0,NA,17
17,1,1,1,1.704113,18
17,1,1,1,1.267008,19
17,0,0,1,1.481435,20
17,0,1,0,1.493901,21
17,1,1,1,1.175203,22
17,1,1,1,1.04643,23
17,1,1,1,1.51667,24
17,0,0,1,1.590182,25
17,0,0,1,0.96334,26
17,1,1,1,1.593366,27
17,0,0,1,1.392064,28
17,1,0,0,NA,29
17,1,1,1,1.471171,30
17,0,0,1,1.572182,31
17,1,1,1,1.480749,32
17,1,1,1,NA,33
17,0,0,1,1.40653,34
17,0,1,0,1.404306,35
17,0,1,0,NA,36
17,1,1,1,1.195782,37
17,1,1,1,1.396268,38
17,0,0,1,1.403843,39
17,0,0,1,1.088327,40
17,0,1,0,2.039846,41
17,1,1,1,1.186599,42
17,1,1,1,1.082616,43
17,0,0,1,1.480171,44
17,1,1,1,1.269339,45
17,0,1,0,1.0855,46
17,0,1,0,0.967184,47
17,0,1,0,0.975786,48
17,0,0,1,1.183977,49
17,0,1,0,1.581047,50
17,1,1,1,1.395151,51
17,0,1,0,1.276286,52
17,0,0,1,1.704072,53
17,0,1,0,1.587653,54
17,1,1,1,1.172469,55
17,0,1,0,1.067518,56
17,1,1,1,NA,57
17,0,0,1,1.506291,58
17,1,0,0,2.14523,59
17,1,1,1,1.508446,60
17,1,1,1,0.972808,61
17,0,1,0,1.393148,62
17,1,0,0,NA,63
17,0,1,0,1.06926,64
17,0,0,1,1.586934,65
17,1,1,1,1.157875,66
17,0,0,1,1.59864,67
17,1,1,1,1.069022,68
17,0,0,1,1.271215,69
17,1,1,1,1.497394,70
17,1,1,1,1.084809,71
17,1,1,1,1.082747,72
17,1,1,1,1.386136,73
17,0,0,1,1.520676,74
17,1,1,1,1.946206,75
17,1,1,1,1.159807,76
17,1,1,1,1.064332,77
17,0,0,1,1.481334,78
17,1,1,1,1.288225,79
17,0,0,1,2.129173,80
17,0,0,1,1.460581,81
17,0,0,1,NA,82
17,1,1,1,1.708381,83
17,0,0,1,1.390481,84
17,0,1,0,1.188542,85
17,1,1,1,1.384081,86
17,0,0,1,NA,87
17,1,1,1,1.282385,88
17,0,1,0,1.407905,89
17,0,0,1,1.515276,90
17,1,0,0,0.985599,91
17,1,1,1,1.396279,92
17,0,1,0,2.363084,93
17,1,1,1,1.096492,94
17,0,1,0,1.860087,95
17,1,1,1,1.391924,96
17,1,1,1,1.08646,97
17,0,0,1,1.734535,98
17,1,1,1,2.427754,99
17,0,0,1,1.401868,100
17,1,1,1,1.719811,101
17,1,1,1,1.182917,102
17,0,0,1,1.484119,103
17,0,0,1,2.02644,104
17,0,1,0,1.48775,105
17,1,1,1,1.095417,106
17,0,0,1,1.409663,107
17,0,0,1,1.311138,108
17,0,0,1,1.320439,109
17,1,1,1,1.605735,110
17,0,0,1,NA,111
17,1,1,1,1.410393,112
18,0,0,1,1.740949,1
18,0,0,1,1.215797,2
18,0,0,1,1.076258,3
18,0,0,1,1.774783,4
18,0,0,1,1.31394,5
18,1,1,1,1.394544,6
18,1,1,1,1.282753,7
18,1,1,1,2.59899,8
18,1,1,1,2.279862,9
18,1,1,1,1.484148,10
18,1,1,1,1.405352,11
18,1,1,1,1.214475,12
18,1,1,1,2.28647,13
18,0,0,1,1.397018,14
18,0,0,1,1.331339,15
18,1,1,1,1.801364,16
18,1,1,1,NA,17
18,0,0,1,1.605004,18
18,1,1,1,1.827137,19
18,0,0,1,1.66882,20
18,0,0,1,1.095452,21
18,1,1,1,2.377416,22
18,0,0,1,3.246979,23
18,1,1,1,1.617997,24
18,0,0,1,1.908576,25
18,1,1,1,2.365371,26
18,1,1,1,1.792793,27
18,1,1,1,1.752074,28
18,1,1,1,3.194144,29
18,1,1,1,2.583653,30
18,1,1,1,1.186665,31
18,1,1,1,1.858994,32
18,1,1,1,1.307976,33
18,1,1,1,1.310953,34
18,0,0,1,1.40204,35
18,1,1,1,1.732363,36
18,0,0,1,1.71134,37
18,1,1,1,2.033041,38
18,0,0,1,1.928853,39
18,0,0,1,1.592304,40
18,1,1,1,1.712319,41
18,1,1,1,2.395249,42
18,1,1,1,1.823854,43
18,1,1,1,2.858175,44
18,1,1,1,1.310769,45
18,0,0,1,1.410405,46
18,1,1,1,1.708963,47
18,1,1,1,2.35454,48
18,1,1,1,1.6301,49
18,1,1,1,1.661073,50
18,0,0,1,2.017654,51
18,1,1,1,3.716475,52
18,0,0,1,1.904778,53
18,0,0,1,1.086037,54
18,0,0,1,2.750927,55
18,0,0,1,1.195736,56
18,0,0,1,3.605143,57
18,0,0,1,0.994436,58
18,0,0,1,1.164932,59
18,1,1,1,3.806996,60
18,1,1,1,1.496665,61
18,0,0,1,1.806231,62
18,1,1,1,2.989917,63
18,0,0,1,1.484965,64
18,1,1,1,1.58325,65
18,1,1,1,1.967674,66
18,0,0,1,1.720227,67
18,0,0,1,0.980024,68
18,1,1,1,1.601047,69
18,0,0,1,1.415177,70
18,0,0,1,1.166745,71
18,0,0,1,0.978482,72
18,0,0,1,1.210265,73
18,0,0,1,1.103615,74
18,1,1,1,3.244233,75
18,1,1,1,1.41932,76
18,1,1,1,2.097085,77
18,1,1,1,1.071115,78
18,0,0,1,1.813459,79
18,1,1,1,2.140765,80
18,1,1,1,2.455916,81
18,0,0,1,1.771812,82
18,0,0,1,1.494661,83
18,0,0,1,2.542826,84
18,0,0,1,1.094542,85
18,0,1,0,NA,86
18,0,0,1,1.794667,87
18,1,1,1,3.582311,88
18,0,0,1,1.936437,89
18,0,0,1,1.295201,90
18,0,0,1,2.040054,91
18,1,1,1,2.111112,92
18,1,1,1,1.485214,93
18,0,0,1,1.496451,94
18,1,1,1,2.600237,95
18,0,0,1,2.137215,96
18,0,0,1,1.204805,97
18,1,1,1,1.945925,98
18,1,1,1,1.464664,99
18,0,0,1,1.592967,100
18,0,0,1,1.089848,101
18,0,0,1,0.99006,102
18,1,1,1,1.613641,103
18,1,1,1,1.662566,104
18,1,1,1,NA,105
18,1,1,1,1.421037,106
18,0,0,1,1.500489,107
18,0,0,1,1.702472,108
18,0,0,1,1.906787,109
18,0,0,1,NA,110
18,0,0,1,1.629709,111
18,0,0,1,0.99623,112
19,1,0,0,NA,1
19,0,0,1,1.513404,2
19,1,1,1,1.525692,3
19,0,0,1,1.370798,4
19,1,1,1,1.370326,5
19,1,1,1,1.283072,6
19,1,1,1,1.282983,7
19,1,1,1,1.104341,8
19,0,0,1,1.504332,9
19,0,1,0,1.315287,10
19,0,1,0,1.584686,11
19,0,1,0,1.473844,12
19,0,0,1,1.617074,13
19,1,1,1,1.18662,14
19,1,1,1,1.295217,15
19,0,1,0,1.483196,16
19,0,0,1,2.05437,17
19,1,1,1,0.972841,18
19,0,0,1,2.319594,19
19,0,1,0,2.595739,20
19,1,0,0,2.064592,21
19,0,0,1,1.475334,22
19,0,0,1,1.387687,23
19,0,1,0,1.382747,24
19,0,0,1,1.37573,25
19,0,0,1,1.073483,26
19,0,1,0,1.734907,27
19,1,1,1,1.797094,28
19,0,0,1,0.938283,29
19,1,0,0,1.839324,30
19,0,1,0,1.241921,31
19,1,1,1,1.364239,32
19,1,1,1,1.600282,33
19,1,1,1,2.040037,34
19,0,0,1,2.235442,35
19,0,0,1,1.464746,36
19,1,0,0,1.514623,37
19,0,1,0,1.627204,38
19,0,0,1,1.502787,39
19,0,0,1,2.530175,40
19,0,1,0,1.371744,41
19,1,0,0,1.394721,42
19,0,0,1,1.383776,43
19,1,1,1,1.285855,44
19,1,1,1,1.211064,45
19,1,1,1,0.98598,46
19,1,1,1,1.203462,47
19,1,1,1,1.214969,48
19,1,0,0,1.376245,49
19,0,1,0,1.691821,50
19,1,0,0,1.593885,51
19,0,0,1,2.929435,52
19,1,1,1,2.516747,53
19,1,0,0,1.916681,54
19,1,1,1,1.589835,55
19,0,0,1,1.946643,56
19,0,1,0,1.079884,57
19,1,1,1,NA,58
19,1,1,1,NA,59
19,1,0,0,1.703875,60
19,0,1,0,0.970836,61
19,0,1,0,1.171581,62
19,0,0,1,1.264394,63
19,1,0,0,1.576251,64
19,1,1,1,1.368221,65
19,1,1,1,1.380769,66
19,1,0,0,1.080163,67
19,1,1,1,1.278099,68
19,1,1,1,NA,69
19,1,0,0,NA,70
19,1,1,1,1.680458,71
19,1,1,1,1.418077,72
19,0,1,0,3.048438,73
19,0,0,1,2.098981,74
19,0,0,1,1.087089,75
19,0,0,1,1.201494,76
19,0,0,1,1.317845,77
19,1,1,1,2.268354,78
19,1,1,1,1.499319,79
19,1,1,1,1.421315,80
19,0,1,0,1.81057,81
19,0,1,0,2.79174,82
19,0,1,0,1.746264,83
19,0,0,1,2.146282,84
19,0,0,1,1.31727,85
19,1,0,0,NA,86
19,1,1,1,1.579239,87
19,0,0,1,1.274179,88
19,1,1,1,1.917718,89
19,1,0,0,1.280193,90
19,1,1,1,1.303828,91
19,0,0,1,1.177186,92
19,0,0,1,1.90234,93
19,0,1,0,1.28797,94
19,0,1,0,1.183259,95
19,1,1,1,1.315949,96
19,0,0,1,1.601165,97
19,1,1,1,1.097821,98
19,1,0,0,2.016802,99
19,0,1,0,1.189412,100
19,1,1,1,1.104209,101
19,1,0,0,1.713443,102
19,1,1,1,0.970739,103
19,1,1,1,2.078627,104
19,0,1,0,1.076421,105
19,1,1,1,1.086913,106
19,1,1,1,1.528711,107
19,0,1,0,1.210064,108
19,0,0,1,1.943611,109
19,0,0,1,1.190053,110
19,0,0,1,1.749344,111
19,0,1,0,1.161042,112
20,1,1,1,1.572369,1
20,1,1,1,1.182795,2
20,0,0,1,1.92752,3
20,1,1,1,1.578721,4
20,1,1,1,1.416261,5
20,0,0,1,1.480222,6
20,0,0,1,1.381279,7
20,0,0,1,1.195967,8
20,1,1,1,1.940807,9
20,0,0,1,1.303132,10
20,0,0,1,1.471154,11
20,1,1,1,2.160887,12
20,1,1,1,1.30043,13
20,0,0,1,1.38117,14
20,1,0,0,2.098,15
20,0,0,1,1.17907,16
20,0,0,1,1.199607,17
20,1,1,1,1.509049,18
20,0,0,1,1.181706,19
20,0,0,1,1.249937,20
20,0,0,1,1.173971,21
20,1,1,1,1.50707,22
20,0,0,1,1.163777,23
20,0,1,0,1.794043,24
20,0,0,1,1.163276,25
20,1,1,1,1.286108,26
20,0,0,1,1.281054,27
20,1,1,1,1.397888,28
20,0,0,1,1.159046,29
20,0,0,1,0.977909,30
20,1,1,1,1.523935,31
20,1,1,1,1.490619,32
20,1,1,1,1.186343,33
20,0,0,1,1.295506,34
20,1,1,1,1.266676,35
20,0,0,1,1.052723,36
20,0,0,1,1.102014,37
20,1,1,1,1.696799,38
20,1,1,1,1.802254,39
20,1,1,1,1.314879,40
20,1,1,1,2.098406,41
20,1,1,1,1.095487,42
20,1,1,1,1.323133,43
20,1,1,1,1.076078,44
20,0,0,1,1.461949,45
20,1,1,1,1.384044,46
20,0,0,1,1.284919,47
20,0,0,1,1.10351,48
20,0,0,1,1.07102,49
20,1,0,0,1.626824,50
20,1,1,1,1.498208,51
20,0,0,1,1.044171,52
20,0,0,1,1.095877,53
20,1,1,1,1.636535,54
20,1,1,1,1.372228,55
20,1,1,1,1.003525,56
20,0,0,1,1.177017,57
20,1,1,1,1.575497,58
20,1,1,1,1.664747,59
20,1,1,1,1.418608,60
20,0,0,1,1.390275,61
20,0,0,1,1.226288,62
20,1,1,1,1.624046,63
20,0,0,1,1.049229,64
20,1,1,1,1.145258,65
20,1,1,1,1.270763,66
20,1,1,1,1.265043,67
20,0,0,1,1.506629,68
20,1,1,1,1.682134,69
20,0,0,1,0.970767,70
20,0,0,1,0.985189,71
20,1,1,1,1.625972,72
20,1,1,1,1.254185,73
20,0,0,1,1.073151,74
20,0,0,1,1.394088,75
20,1,1,1,1.153302,76
20,0,0,1,1.071954,77
20,0,0,1,0.979799,78
20,0,0,1,0.986476,79
20,1,1,1,2.029371,80
20,0,1,0,1.372403,81
20,1,1,1,1.282554,82
20,0,0,1,1.24568,83
20,0,0,1,1.372187,84
20,0,0,1,0.992826,85
20,0,0,1,0.986192,86
20,0,0,1,1.085275,87
20,0,0,1,0.995895,88
20,1,1,1,1.754277,89
20,0,0,1,0.945948,90
20,1,1,1,1.152001,91
20,0,1,0,1.488654,92
20,1,1,1,1.697116,93
20,1,1,1,1.462474,94
20,0,0,1,0.947804,95
20,1,1,1,1.687346,96
20,1,1,1,1.588266,97
20,1,1,1,1.683917,98
20,0,0,1,1.136049,99
20,1,1,1,1.478174,100
20,0,0,1,1.057371,101
20,1,1,1,1.399394,102
20,0,0,1,1.059241,103
20,0,0,1,0.880243,104
20,0,0,1,0.974362,105
20,1,1,1,1.835489,106
20,0,0,1,1.3851,107
20,1,1,1,1.709705,108
20,1,1,1,1.691062,109
20,0,1,0,2.010511,110
20,1,1,1,1.496939,111
20,1,1,1,1.484003,112
21,1,1,1,3.487275,1
21,0,0,1,1.904149,2
21,1,1,1,1.708942,3
21,0,0,1,1.713192,4
21,1,1,1,1.617182,5
21,0,0,1,1.618306,6
21,0,0,1,1.405641,7
21,1,1,1,1.834879,8
21,0,1,0,1.32255,9
21,1,0,0,1.84738,10
21,0,0,1,1.709685,11
21,0,1,0,2.225214,12
21,1,1,1,2.041117,13
21,0,1,0,1.978349,14
21,1,1,1,1.629866,15
21,0,0,1,2.453927,16
21,0,1,0,1.903805,17
21,1,1,1,1.313812,18
21,1,1,1,1.195187,19
21,0,1,0,3.135428,20
21,0,1,0,2.330377,21
21,0,1,0,1.412095,22
21,0,1,0,1.426378,23
21,1,1,1,1.313975,24
21,0,0,1,2.278448,25
21,0,0,1,1.911076,26
21,1,1,1,1.831248,27
21,1,1,1,1.410167,28
21,0,0,1,2.970921,29
21,1,1,1,3.283472,30
21,1,1,1,1.507461,31
21,0,1,0,1.404261,32
21,0,1,0,2.044606,33
21,1,1,1,1.419306,34
21,1,1,1,1.317313,35
21,1,1,1,1.313333,36
21,1,1,1,2.387404,37
21,1,0,0,2.241645,38
21,1,1,1,2.22185,39
21,1,1,1,2.859722,40
21,0,1,0,2.945745,41
21,0,0,1,1.839071,42
21,1,1,1,2.053162,43
21,0,0,1,1.945874,44
21,1,1,1,1.936669,45
21,1,1,1,2.468669,46
21,1,1,1,1.707154,47
21,0,1,0,3.666946,48
21,1,1,1,1.747037,49
21,1,1,1,2.367081,50
21,1,1,1,1.747444,51
21,0,1,0,1.412703,52
21,1,1,1,1.325682,53
21,0,1,0,1.304663,54
21,1,1,1,1.317002,55
21,0,1,0,1.411838,56
21,0,0,1,2.554695,57
21,0,0,1,1.433064,58
21,1,1,1,1.826379,59
21,1,1,1,1.626867,60
21,0,0,1,2.150213,61
21,1,1,1,1.50169,62
21,1,1,1,1.809325,63
21,1,1,1,1.528907,64
21,1,1,1,1.420534,65
21,1,1,1,1.766515,66
21,0,1,0,1.54149,67
21,0,0,1,1.938074,68
21,0,1,0,1.410401,69
21,1,1,1,1.535821,70
21,1,1,1,1.426836,71
21,0,1,0,2.301874,72
21,0,1,0,1.541693,73
21,1,1,1,1.65585,74
21,1,1,1,1.647689,75
21,1,1,1,1.980185,76
21,0,0,1,2.159977,77
21,0,0,1,1.641902,78
21,0,0,1,1.766491,79
21,1,1,1,2.482647,80
21,0,1,0,1.732755,81
21,0,0,1,2.065822,82
21,0,0,1,1.527993,83
21,1,1,1,2.392337,84
21,0,1,0,1.816928,85
21,1,1,1,1.633094,86
21,0,0,1,2.387155,87
21,0,1,0,1.946026,88
21,0,0,1,2.246696,89
21,1,1,1,2.713571,90
21,0,1,0,2.055778,91
21,1,1,1,1.642018,92
21,0,1,0,1.646724,93
21,1,1,1,1.523909,94
21,0,1,0,2.294025,95
21,0,0,1,2.381366,96
21,0,1,0,3.132639,97
21,1,1,1,1.948693,98
21,1,1,1,2.339661,99
21,0,1,0,2.039932,100
21,0,1,0,2.486084,101
21,0,1,0,1.947611,102
21,0,1,0,2.20992,103
21,1,1,1,1.636341,104
21,0,1,0,1.95209,105
21,1,0,0,1.837772,106
21,0,1,0,1.717925,107
21,1,0,0,1.933833,108
21,1,1,1,1.961241,109
21,0,1,0,1.432072,110
21,1,1,1,1.842868,111
21,1,1,1,1.53575,112
22,1,1,1,2.010957,1
22,1,1,1,1.301634,2
22,1,1,1,1.207307,3
22,1,1,1,1.089321,4
22,1,1,1,1.104061,5
22,1,1,1,2.626164,6
22,0,0,1,1.603097,7
22,1,1,1,1.583103,8
22,0,1,0,1.095242,9
22,1,1,1,1.079926,10
22,0,0,1,1.720725,11
22,1,1,1,1.271427,12
22,1,1,1,NA,13
22,1,1,1,1.197568,14
22,1,1,1,1.094715,15
22,1,1,1,1.18923,16
22,0,0,1,1.595427,17
22,0,0,1,1.701076,18
22,0,0,1,1.089676,19
22,1,1,1,1.717857,20
22,1,1,1,1.099116,21
22,0,0,1,1.410963,22
22,0,0,1,1.285973,23
22,0,0,1,0.970604,24
22,0,0,1,0.986324,25
22,1,1,1,1.619066,26
22,1,1,1,0.989538,27
22,0,0,1,1.290736,28
22,0,0,1,1.151807,29
22,0,0,1,1.101529,30
22,1,1,1,1.842686,31
22,0,0,1,1.849237,32
22,1,0,0,1.317523,33
22,0,0,1,0.957647,34
22,0,0,1,1.171446,35
22,0,0,1,1.199821,36
22,0,1,0,1.381225,37
22,1,1,1,1.08853,38
22,0,1,0,1.423467,39
22,0,0,1,1.611723,40
22,1,0,0,1.672621,41
22,1,1,1,1.1708,42
22,0,0,1,1.298328,43
22,0,0,1,0.977474,44
22,1,1,1,1.396247,45
22,1,1,1,1.317674,46
22,1,1,1,1.09845,47
22,1,0,0,2.136078,48
22,1,1,1,1.083495,49
22,1,1,1,1.095507,50
22,1,1,1,1.070634,51
22,0,1,0,1.180351,52
22,1,1,1,0.989217,53
22,0,0,1,1.41362,54
22,0,0,1,1.07985,55
22,0,0,1,1.080334,56
22,1,1,1,2.268577,57
22,0,0,1,1.52147,58
22,1,0,0,1.290805,59
22,1,1,1,1.823326,60
22,0,0,1,1.393076,61
22,1,0,0,1.079505,62
22,0,0,1,1.080537,63
22,1,1,1,1.508867,64
22,0,0,1,1.430646,65
22,1,1,1,1.376984,66
22,0,0,1,1.596039,67
22,0,0,1,0.985985,68
22,1,0,0,1.089524,69
22,0,0,1,0.973614,70
22,0,0,1,1.71501,71
22,1,1,1,1.614649,72
22,0,0,1,1.844991,73
22,1,0,0,1.186671,74
22,0,0,1,0.985386,75
22,0,1,0,1.60181,76
22,0,0,1,1.384061,77
22,1,1,1,1.458229,78
22,1,1,1,1.587561,79
22,1,1,1,1.535932,80
22,1,1,1,0.989199,81
22,1,1,1,1.426647,82
22,1,1,1,1.087013,83
22,1,1,1,1.099018,84
22,0,1,0,2.471728,85
22,1,0,0,1.826257,86
22,0,0,1,1.675519,87
22,1,1,1,1.509246,88
22,0,1,0,1.384256,89
22,0,0,1,1.485956,90
22,0,0,1,1.487331,91
22,1,1,1,1.482693,92
22,0,0,1,1.814104,93
22,1,1,1,NA,94
22,0,0,1,1.593761,95
22,0,0,1,1.307268,96
22,0,0,1,2.308509,97
22,0,0,1,1.974794,98
22,1,1,1,1.510448,99
22,0,0,1,1.504698,100
22,0,1,0,2.430245,101
22,0,0,1,1.59517,102
22,0,0,1,1.91544,103
22,0,0,1,2.419021,104
22,1,1,1,1.847458,105
22,0,1,0,1.299566,106
22,1,1,1,0.98651199999999994,107
22,1,1,1,0.986458,108
22,1,1,1,2.16995,109
22,0,0,1,1.603919,110
22,0,0,1,1.274193,111
22,1,1,1,1.721642,112
23,0,0,1,NA,1
23,0,0,1,1.299111,2
23,1,1,1,2.405949,3
23,1,1,1,1.292922,4
23,1,1,1,1.321415,5
23,0,0,1,1.816315,6
23,0,0,1,1.204713,7
23,0,0,1,1.092917,8
23,1,0,0,1.418015,9
23,0,0,1,1.091209,10
23,1,0,0,1.203994,11
23,1,1,1,1.606496,12
23,1,1,1,1.161414,13
23,0,0,1,1.391949,14
23,0,0,1,1.31202,15
23,0,0,1,1.192201,16
23,0,0,1,1.298095,17
23,0,0,1,NA,18
23,0,0,1,1.864179,19
23,0,0,1,1.213152,20
23,0,0,1,1.220193,21
23,1,1,1,1.6006880000000001,22
23,0,0,1,1.594467,23
23,0,0,1,1.083016,24
23,1,0,0,1.625065,25
23,0,0,1,1.322851,26
23,1,0,0,1.202495,27
23,1,0,0,2.337004,28
23,1,1,1,1.502679,29
23,0,0,1,1.309949,30
23,1,0,0,1.53852,31
23,0,0,1,1.101223,32
23,1,0,0,0.973078,33
23,1,0,0,1.095638,34
23,1,0,0,0.967655,35
23,0,0,1,1.933669,36
23,0,0,1,1.211348,37
23,0,0,1,1.792705,38
23,0,0,1,0.982707,39
23,0,0,1,0.983287,40
23,0,0,1,1.314978,41
23,1,0,0,0.881534,42
23,1,0,0,0.992259,43
23,0,0,1,1.602475,44
23,1,1,1,1.613319,45
23,0,0,1,1.713428,46
23,1,0,0,1.09852,47
23,0,0,1,1.104728,48
23,0,0,1,0.988991,49
23,1,0,0,1.09426,50
23,1,1,1,2.600202,51
23,0,0,1,1.413724,52
23,1,0,0,2.880936,53
23,1,1,1,2.42671,54
23,0,0,1,1.932404,55
23,1,1,1,2.480812,56
23,1,1,1,1.955786,57
23,1,0,0,2.24821,58
23,1,0,0,1.216577,59
23,1,0,0,0.976968,60
23,1,0,0,0.767311,61
23,0,0,1,0.961389,62
23,1,0,0,0.869949,63
23,1,0,0,1.092495,64
23,0,0,1,0.876909,65
23,0,0,1,0.877667,66
23,0,0,1,1.696012,67
23,1,0,0,1.92643,68
23,1,1,1,1.568175,69
23,1,1,1,0.980617,70
23,0,1,0,0.877152,71
23,0,1,0,0.986054,72
23,0,1,0,1.205016,73
23,0,0,1,1.17208,74
23,0,0,1,0.989883,75
23,0,0,1,0.871196,76
23,1,0,0,0.876928,77
23,1,0,0,0.767031,78
23,1,0,0,0.984384,79
23,0,0,1,1.079602,80
23,0,1,0,1.292359,81
23,0,1,0,0.946073,82
23,1,1,1,1.928363,83
23,0,1,0,1.086732,84
23,1,0,0,1.412958,85
23,1,0,0,1.613917,86
23,1,0,0,0.98554,87
23,1,0,0,1.329421,88
23,1,0,0,0.871039,89
23,1,0,0,0.876671,90
23,0,1,0,1.067987,91
23,1,1,1,1.393002,92
23,1,0,0,1.080373,93
23,0,1,0,1.297815,94
23,1,0,0,0.856773,95
23,1,0,0,0.752109,96
23,1,0,0,0.770027,97
23,1,0,0,0.770411,98
23,1,1,1,0.854111,99
23,0,1,0,0.986717,100
23,1,1,1,0.979861,101
23,1,1,1,0.879902,102
23,0,0,1,1.164902,103
23,0,0,1,0.879395,104
23,0,0,1,0.872133,105
23,1,0,0,0.878414,106
23,0,0,1,0.882408,107
23,0,0,1,0.868063,108
23,1,0,0,0.876851,109
23,0,0,1,0.77075,110
23,0,0,1,1.098249,111
23,0,0,1,1.59199,112
24,0,0,1,1.733328,1
24,1,1,1,1.931346,2
24,0,0,1,2.574678,3
24,0,0,1,2.409984,4
24,0,0,1,1.393348,5
24,0,0,1,1.212345,6
24,0,0,1,1.081562,7
24,1,1,1,1.489452,8
24,0,0,1,1.497688,9
24,1,1,1,2.807477,10
24,0,0,1,2.600482,11
24,1,1,1,3.57829,12
24,0,0,1,1.374796,13
24,1,1,1,1.494102,14
24,1,1,1,2.895387,15
24,1,1,1,4.145471,16
24,1,1,1,1.567849,17
24,1,1,1,NA,18
24,1,1,1,1.828172,19
24,0,0,1,1.39875,20
24,0,0,1,0.97893,21
24,1,1,1,1.392414,22
24,1,1,1,1.310263,23
24,0,0,1,2.179223,24
24,0,0,1,1.19387,25
24,0,0,1,1.193043,26
24,0,0,1,1.738152,27
24,0,0,1,1.065189,28
24,1,1,1,1.467157,29
24,1,1,1,1.569609,30
24,0,0,1,4.389649,31
24,1,1,1,4.155037,32
24,1,1,1,1.309408,33
24,1,1,1,2.10587,34
24,0,0,1,1.498002,35
24,0,0,1,1.300339,36
24,1,1,1,1.517265,37
24,0,0,1,1.289682,38
24,1,0,0,2.863969,39
24,0,0,1,1.761094,40
24,0,0,1,0.989595,41
24,0,0,1,1.095901,42
24,0,0,1,1.080012,43
24,0,0,1,2.195922,44
24,1,1,1,1.740667,45
24,0,0,1,1.293017,46
24,1,1,1,1.926143,47
24,1,0,0,1.29078,48
24,0,0,1,1.325409,49
24,0,0,1,0.988618,50
24,0,0,1,1.100853,51
24,0,0,1,1.310557,52
24,1,1,1,2.493736,53
24,1,1,1,1.18561,54
24,0,0,1,1.523422,55
24,1,1,1,1.95568,56
24,0,0,1,1.508369,57
24,1,1,1,1.289196,58
24,1,1,1,2.798351,59
24,1,1,1,2.704884,60
24,0,0,1,1.724293,61
24,1,1,1,NA,62
24,0,0,1,1.8081,63
24,0,0,1,1.367079,64
24,0,0,1,1.211463,65
24,1,1,1,1.281257,66
24,1,1,1,1.262995,67
24,0,0,1,1.405994,68
24,0,0,1,1.857997,69
24,1,1,1,1.398404,70
24,0,0,1,1.175619,71
24,0,0,1,1.182075,72
24,0,1,0,1.403578,73
24,1,1,1,1.102349,74
24,1,0,0,1.838777,75
24,0,0,1,1.191705,76
24,0,0,1,3.242495,77
24,1,1,1,2.572124,78
24,0,1,0,1.082672,79
24,1,1,1,0.974794,80
24,0,0,1,1.826197,81
24,0,0,1,0.999585,82
24,0,0,1,0.883223,83
24,1,1,1,1.423046,84
24,1,1,1,3.845935,85
24,1,1,1,4.028457,86
24,1,1,1,NA,87
24,1,1,1,1.3946210000000001,88
24,1,1,1,1.973777,89
24,0,0,1,1.841934,90
24,1,0,0,NA,91
24,1,1,1,NA,92
24,1,1,1,1.756018,93
24,1,1,1,1.311128,94
24,0,0,1,1.510725,95
24,1,1,1,1.837799,96
24,0,0,1,1.303697,97
24,1,1,1,1.495044,98
24,1,1,1,NA,99
24,0,0,1,1.732047,100
24,1,1,1,NA,101
24,0,0,1,1.38609,102
24,1,1,1,2.184507,103
24,1,1,1,2.981449,104
24,1,0,0,1.63645,105
24,1,1,1,4.65526,106
24,1,1,1,1.399741,107
24,0,0,1,1.409666,108
24,1,0,0,3.26261,109
24,0,0,1,2.156808,110
24,0,0,1,1.101833,111
24,0,0,1,0.981417,112
25,0,0,1,3.528519,1
25,1,1,1,2.955089,2
25,0,0,1,1.936537,3
25,1,1,1,3.126267,4
25,1,1,1,1.804083,5
25,1,1,1,1.530209,6
25,1,1,1,1.205389,7
25,1,1,1,1.20587,8
25,1,1,1,1.861551,9
25,0,0,1,1.521058,10
25,1,1,1,1.626026,11
25,1,0,0,2.485978,12
25,1,0,0,2.412281,13
25,0,0,1,1.095904,14
25,0,0,1,1.320175,15
25,0,0,1,1.320616,16
25,0,1,0,3.255971,17
25,0,1,0,2.61501,18
25,0,0,1,2.46196,19
25,0,0,1,2.335535,20
25,1,0,0,1.498697,21
25,1,1,1,2.239751,22
25,1,0,0,2.158544,23
25,0,0,1,1.204967,24
25,0,0,1,1.423965,25
25,0,0,1,1.848547,26
25,1,1,1,2.029111,27
25,1,1,1,1.205462,28
25,0,1,0,1.189925,29
25,0,0,1,1.84596,30
25,1,0,0,0.767518,31
25,0,1,0,2.808903,32
25,0,0,1,1.817482,33
25,1,0,0,1.424109,34
25,0,0,1,1.425955,35
25,1,1,1,2.695196,36
25,1,1,1,0.986339,37
25,1,1,1,1.095996,38
25,0,1,0,3.118405,39
25,1,1,1,0.650041,40
25,1,1,1,4.548339,41
25,0,0,1,2.13073,42
25,1,1,1,2.805048,43
25,1,1,1,1.31496,44
25,0,0,1,2.705197,45
25,1,1,1,NA,46
25,0,0,1,2.255657,47
25,0,0,1,1.314401,48
25,0,0,1,3.235552,49
25,1,1,1,3.249658,50
25,0,1,0,1.080409,51
25,0,1,0,1.738053,52
25,0,1,0,NA,53
25,1,1,1,1.317524,54
25,1,1,1,2.1922,55
25,0,0,1,2.505693,56
25,1,1,1,NA,57
25,1,1,1,NA,58
25,1,1,1,NA,59
25,1,1,1,1.3084,60
25,1,1,1,1.098992,61
25,0,1,0,1.426632,62
25,1,1,1,1.751909,63
25,0,1,0,NA,64
25,1,1,1,1.09534,65
25,1,1,1,1.086729,66
25,0,1,0,1.518629,67
25,1,1,1,0.987817,68
25,0,1,0,1.31798,69
25,1,1,1,1.524307,70
25,0,1,0,1.096181,71
25,0,0,1,2.035819,72
25,1,1,1,2.571445,73
25,1,0,0,2.158487,74
25,0,0,1,1.317274,75
25,0,1,0,NA,76
25,0,0,1,1.961603,77
25,1,0,0,1.424255,78
25,0,0,1,1.205535,79
25,0,1,0,1.947548,80
25,0,0,1,1.708058,81
25,1,1,1,NA,82
25,1,1,1,1.424542,83
25,0,1,0,1.208161,84
25,1,1,1,1.299418,85
25,0,0,1,2.049354,86
25,1,1,1,2.158663,87
25,0,1,0,1.855595,88
25,1,1,1,1.095913,89
25,1,1,1,1.755418,90
25,1,1,1,1.196452,91
25,0,0,1,1.958906,92
25,0,0,1,1.205417,93
25,0,0,1,1.099308,94
25,1,0,0,0.986707,95
25,0,0,1,1.815763,96
25,1,1,1,2.380756,97
25,0,0,1,1.726217,98
25,0,0,1,1.596434,99
25,1,0,0,1.314749,100
25,1,1,1,1.736234,101
25,1,1,1,0.766988,102
25,1,1,1,1.736782,103
25,1,1,1,1.205352,104
25,0,0,1,1.838122,105
25,0,0,1,1.803666,106
25,0,0,1,1.189797,107
25,0,0,1,2.663968,108
25,0,0,1,1.4601,109
25,1,1,1,2.15808,110
25,0,1,0,1.855123,111
25,0,1,0,0.767895,112
26,1,1,1,NA,1
26,1,1,1,1.32199,2
26,1,1,1,1.206916,3
26,0,0,1,1.519859,4
26,1,1,1,1.386974,5
26,1,1,1,1.744442,6
26,0,0,1,1.739678,7
26,1,1,1,1.491248,8
26,0,0,1,1.388167,9
26,0,0,1,1.422505,10
26,1,1,1,1.610935,11
26,1,1,1,1.081284,12
26,0,0,1,1.292798,13
26,1,1,1,1.378561,14
26,0,0,1,1.497151,15
26,0,0,1,1.094938,16
26,0,1,0,NA,17
26,0,0,1,1.823218,18
26,0,0,1,0.981708,19
26,0,0,1,0.976828,20
26,1,1,1,1.61775,21
26,0,0,1,1.406551,22
26,1,1,1,1.709624,23
26,1,0,0,1.614932,24
26,0,0,1,1.501283,25
26,0,0,1,1.498274,26
26,1,0,0,1.759423,27
26,1,1,1,1.720496,28
26,0,0,1,1.497093,29
26,0,0,1,1.532408,30
26,1,1,1,1.614182,31
26,1,1,1,NA,32
26,1,1,1,1.374445,33
26,0,0,1,1.503701,34
26,1,1,1,2.261539,35
26,0,0,1,1.282952,36
26,1,1,1,1.156923,37
26,0,0,1,1.297892,38
26,0,0,1,1.695683,39
26,1,1,1,1.407218,40
26,1,1,1,1.298516,41
26,0,0,1,1.625684,42
26,1,1,1,1.53525,43
26,0,0,1,1.588797,44
26,0,0,1,1.201331,45
26,0,0,1,1.506571,46
26,0,0,1,1.720079,47
26,1,1,1,1.728407,48
26,0,0,1,1.398052,49
26,1,1,1,1.304151,50
26,1,1,1,1.701494,51
26,0,0,1,1.502182,52
26,1,1,1,1.370373,53
26,1,0,0,NA,54
26,0,0,1,1.094355,55
26,1,1,1,1.620746,56
26,0,0,1,1.410253,57
26,0,0,1,1.389924,58
26,0,0,1,NA,59
26,1,1,1,1.63175,60
26,1,1,1,1.204486,61
26,0,0,1,1.726794,62
26,0,0,1,2.035482,63
26,1,1,1,1.610658,64
26,1,1,1,1.09465,65
26,0,0,1,1.496154,66
26,1,1,1,1.493005,67
26,1,1,1,0.976771,68
26,0,0,1,1.613789,69
26,0,0,1,1.201201,70
26,0,0,1,1.5207,71
26,1,1,1,1.597188,72
26,1,1,1,1.098799,73
26,1,1,1,1.409162,74
26,1,1,1,0.968127,75
26,0,0,1,1.727926,76
26,0,0,1,1.095822,77
26,0,0,1,1.428786,78
26,1,0,0,1.421998,79
26,1,1,1,1.501185,80
26,0,0,1,1.613759,81
26,0,0,1,NA,82
26,1,1,1,1.473587,83
26,1,1,1,1.098148,84
26,1,1,1,1.427007,85
26,1,1,1,NA,86
26,1,1,1,1.094485,87
26,0,0,1,1.386983,88
26,0,0,1,NA,89
26,0,0,1,1.206884,90
26,0,0,1,1.20411,91
26,1,1,1,1.425675,92
26,1,1,1,0.985426,93
26,0,0,1,1.307838,94
26,0,1,0,1.508238,95
26,0,0,1,1.298762,96
26,0,0,1,1.392959,97
26,0,0,1,1.192159,98
26,0,0,1,1.208138,99
26,1,1,1,1.5188,100
26,1,1,1,0.989197,101
26,1,1,1,1.209133,102
26,1,1,1,1.089442,103
26,0,1,0,1.311436,104
26,0,0,1,1.518307,105
26,1,0,0,1.095647,106
26,1,0,0,1.095657,107
26,0,0,1,1.098818,108
26,0,0,1,1.208448,109
26,1,1,1,1.846856,110
26,1,1,1,1.076125,111
26,1,1,1,1.199732,112
27,0,0,1,NA,1
27,0,1,0,2.474254,2
27,0,0,1,1.398356,3
27,0,1,0,3.337623,4
27,0,0,1,1.710973,5
27,1,1,1,1.518803,6
27,0,0,1,1.40481,7
27,1,1,1,1.508906,8
27,1,1,1,1.420041,9
27,0,1,0,1.079293,10
27,0,0,1,1.714127,11
27,1,1,1,NA,12
27,0,1,0,1.094319,13
27,1,1,1,1.205198,14
27,1,1,1,1.516748,15
27,1,1,1,1.423363,16
27,1,1,1,1.09889,17
27,0,1,0,1.317574,18
27,0,1,0,1.098289,19
27,1,1,1,1.313403,20
27,1,1,1,1.211061,21
27,1,1,1,1.192841,22
27,0,0,1,1.517613,23
27,0,0,1,3.678172,24
27,0,0,1,1.640542,25
27,1,1,1,1.505531,26
27,0,1,0,1.639448,27
27,1,1,1,1.204462,28
27,1,1,1,3.050909,29
27,0,1,0,1.314348,30
27,1,1,1,2.298407,31
27,1,0,0,3.30387,32
27,1,1,1,1.50129,33
27,1,1,1,1.642326,34
27,1,1,1,1.317529,35
27,0,0,1,1.603185,36
27,0,0,1,1.531973,37
27,0,0,1,2.914607,38
27,1,1,1,1.519494,39
27,0,0,1,1.497741,40
27,0,0,1,1.417867,41
27,0,0,1,1.317579,42
27,1,1,1,2.171752,43
27,1,0,0,1.604852,44
27,0,0,1,1.423925,45
27,1,1,1,1.832377,46
27,0,0,1,1.585318,47
27,1,1,1,3.864421,48
27,1,0,0,NA,49
27,0,1,0,1.630996,50
27,1,1,1,3.174232,51
27,1,1,1,1.314728,52
27,0,0,1,1.847018,53
27,1,0,0,2.192331,54
27,0,0,1,1.204835,55
27,0,0,1,2.945785,56
27,1,0,0,1.423482,57
27,1,0,0,1.520569,58
27,1,1,1,1.926766,59
27,0,0,1,2.34526,60
27,1,1,1,1.929439,61
27,1,0,0,3.036054,62
27,1,1,1,1.929745,63
27,1,1,1,1.413404,64
27,0,0,1,2.033403,65
27,0,0,1,1.094617,66
27,0,0,1,1.423448,67
27,1,1,1,2.067961,68
27,0,0,1,1.720553,69
27,1,0,0,NA,70
27,0,0,1,1.760671,71
27,1,1,1,3.545345,72
27,0,0,1,1.821204,73
27,1,1,1,2.388612,74
27,0,0,1,1.81757,75
27,1,1,1,1.727334,76
27,0,0,1,1.838332,77
27,0,0,1,1.313844,78
27,0,0,1,1.180158,79
27,0,1,0,1.7209,80
27,0,0,1,1.615931,81
27,0,0,1,1.586121,82
27,0,0,1,1.202309,83
27,1,1,1,1.920187,84
27,1,1,1,1.849791,85
27,1,0,0,NA,86
27,1,1,1,1.724156,87
27,0,0,1,1.517359,88
27,1,0,0,1.64262,89
27,1,1,1,1.71054,90
27,0,1,0,1.536263,91
27,0,0,1,1.850347,92
27,1,0,0,2.626827,93
27,1,1,1,1.846151,94
27,0,0,1,2.397698,95
27,1,1,1,1.723074,96
27,0,0,1,1.616231,97
27,1,1,1,1.830452,98
27,0,0,1,2.725381,99
27,1,0,0,3.297339,100
27,0,0,1,1.187871,101
27,0,0,1,3.594318,102
27,0,0,1,1.496439,103
27,1,0,0,2.786395,104
27,1,1,1,2.054367,105
27,0,0,1,3.033637,106
27,0,0,1,1.564358,107
27,1,0,0,1.95048,108
27,0,0,1,1.632947,109
27,1,1,1,1.516359,110
27,1,0,0,2.36105,111
27,0,0,1,1.207703,112
28,0,0,1,1.903068,1
28,0,1,0,1.519606,2
28,0,0,1,1.262001,3
28,0,0,1,1.187229,4
28,0,0,1,0.954086,5
28,1,1,1,1.357518,6
28,0,0,1,0.93464,7
28,1,1,1,1.283164,8
28,0,0,1,1.407463,9
28,0,0,1,1.390766,10
28,1,1,1,1.296968,11
28,0,0,1,1.157625,12
28,1,1,1,1.063633,13
28,0,0,1,1.249937,14
28,0,0,1,1.35614,15
28,0,0,1,1.172304,16
28,0,0,1,0.977056,17
28,1,1,1,1.172541,18
28,1,1,1,1.253726,19
28,0,0,1,1.187343,20
28,1,1,1,1.356087,21
28,1,1,1,NA,22
28,1,1,1,1.476039,23
28,0,0,1,2.242555,24
28,1,1,1,1.283484,25
28,1,1,1,0.95375,26
28,1,1,1,1.828255,27
28,1,1,1,0.984825,28
28,1,1,1,0.985111,29
28,0,0,1,1.297231,30
28,1,1,1,1.171298,31
28,1,1,1,0.976436,32
28,0,0,1,1.283117,33
28,0,0,1,1.272199,34
28,1,1,1,1.719073,35
28,1,1,1,1.789154,36
28,1,1,1,0.968537,37
28,1,1,1,2.188072,38
28,1,1,1,0.875785,39
28,1,1,1,0.851623,40
28,0,0,1,1.383751,41
28,1,1,1,0.951906,42
28,1,1,1,1.086065,43
28,1,1,1,1.095123,44
28,0,0,1,1.392241,45
28,1,1,1,1.078272,46
28,1,1,1,0.985482,47
28,0,0,1,1.499027,48
28,1,1,1,1.064038,49
28,0,0,1,1.391166,50
28,0,0,1,NA,51
28,0,0,1,1.281598,52
28,1,1,1,1.516576,53
28,0,0,1,1.062097,54
28,1,1,1,2.17881,55
28,1,1,1,1.1639,56
28,1,1,1,0.876967,57
28,1,1,1,1.093236,58
28,0,0,1,1.492481,59
28,0,0,1,1.696225,60
28,0,0,1,0.985335,61
28,0,0,1,0.986173,62
28,0,0,1,0.985129,63
28,1,1,1,1.517452,64
28,0,1,0,1.506196,65
28,0,0,1,1.243072,66
28,0,0,1,1.29641,67
28,0,0,1,0.98415299999999994,68
28,1,1,1,1.392306,69
28,1,1,1,0.975999,70
28,1,1,1,0.983981,71
28,1,1,1,1.095363,72
28,1,1,1,0.977179,73
28,0,0,1,1.499417,74
28,0,0,1,1.085913,75
28,1,1,1,1.609191,76
28,1,1,1,0.875599,77
28,1,1,1,0.875175,78
28,0,0,1,1.524764,79
28,0,0,1,0.85917,80
28,0,0,1,0.867287,81
28,1,1,1,1.594882,82
28,1,1,1,0.968458,83
28,1,1,1,0.985482,84
28,1,1,1,1.095969,85
28,0,0,1,1.391216,86
28,1,1,1,1.187594,87
28,0,0,1,1.281524,88
28,0,0,1,1.750338,89
28,0,0,1,1.52294,90
28,0,0,1,1.095445,91
28,0,0,1,0.876272,92
28,1,1,1,1.06968,93
28,0,0,1,1.178089,94
28,0,0,1,1.162024,95
28,1,1,1,1.287923,96
28,1,1,1,0.977014,97
28,1,1,1,0.978502,98
28,1,1,1,0.989669,99
28,1,1,1,0.977554,100
28,0,0,1,1.397319,101
28,0,0,1,1.413129,102
28,1,1,1,1.693604,103
28,0,0,1,1.4905,104
28,1,1,1,1.055487,105
28,0,0,1,1.823113,106
28,0,0,1,1.177986,107
28,1,1,1,1.460079,108
28,0,0,1,1.693355,109
28,0,0,1,0.966619,110
28,0,0,1,0.965455,111
28,0,0,1,1.626287,112
29,0,1,0,2.553212,1
29,0,0,1,1.505763,2
29,1,1,1,1.498836,3
29,1,1,1,1.502781,4
29,0,0,1,1.384035,5
29,0,0,1,1.395319,6
29,1,1,1,1.610477,7
29,0,0,1,1.385322,8
29,1,1,1,2.790971,9
29,0,0,1,2.319593,10
29,1,1,1,1.489526,11
29,1,1,1,1.501456,12
29,0,0,1,1.267616,13
29,0,0,1,2.567268,14
29,1,1,1,1.613238,15
29,0,0,1,1.821681,16
29,1,0,0,1.830318,17
29,1,1,1,2.130346,18
29,1,1,1,1.508858,19
29,0,0,1,1.505134,20
29,1,1,1,1.923459,21
29,1,1,1,1.605389,22
29,0,1,0,2.77674,23
29,0,0,1,1.890472,24
29,1,1,1,1.597037,25
29,1,1,1,1.673434,26
29,0,0,1,1.799334,27
29,0,1,0,1.923936,28
29,0,1,0,1.924304,29
29,0,0,1,1.92919,30
29,0,1,0,3.142822,31
29,0,0,1,1.407646,32
29,0,0,1,1.710811,33
29,1,0,0,1.59334,34
29,1,1,1,1.496567,35
29,0,0,1,1.61583,36
29,1,1,1,1.72547,37
29,1,1,1,1.586311,38
29,1,1,1,1.727412,39
29,1,1,1,NA,40
29,0,0,1,1.517328,41
29,1,1,1,1.626968,42
29,1,1,1,2.025001,43
29,0,0,1,2.253442,44
29,0,0,1,NA,45
29,0,0,1,1.755177,46
29,0,0,1,1.204884,47
29,1,1,1,1.960143,48
29,0,1,0,1.712626,49
29,1,1,1,NA,50
29,1,1,1,1.206545,51
29,0,0,1,1.7251,52
29,1,1,1,NA,53
29,1,1,1,NA,54
29,1,1,1,1.524344,55
29,0,1,0,1.939567,56
29,0,1,0,1.504777,57
29,1,1,1,1.504936,58
29,0,0,1,1.485415,59
29,0,0,1,1.493618,60
29,1,1,1,1.815542,61
29,1,1,1,1.955272,62
29,0,0,1,1.501794,63
29,1,1,1,1.689888,64
29,1,1,1,1.627523,65
29,0,0,1,2.795114,66
29,0,1,0,1.817781,67
29,1,1,1,2.028971,68
29,0,0,1,1.618832,69
29,0,0,1,1.521639,70
29,0,0,1,1.94324,71
29,0,0,1,2.705379,72
29,1,1,1,2.039436,73
29,0,1,0,1.848111,74
29,1,1,1,1.81946,75
29,1,1,1,1.60627,76
29,0,1,0,2.986575,77
29,1,1,1,1.721044,78
29,1,1,1,1.91283,79
29,0,0,1,1.408328,80
29,0,0,1,1.517704,81
29,1,1,1,NA,82
29,0,0,1,1.614118,83
29,0,0,1,1.51811,84
29,1,0,0,1.51495,85
29,1,0,0,1.946501,86
29,0,0,1,1.30249,87
29,1,1,1,3.116209,88
29,1,1,1,1.634553,89
29,0,1,0,2.695214,90
29,1,1,1,2.709868,91
29,1,1,1,NA,92
29,1,1,1,1.611929,93
29,0,0,1,1.927866,94
29,0,0,1,1.930662,95
29,0,0,1,1.520969,96
29,0,0,1,1.622708,97
29,0,0,1,1.732964,98
29,1,1,1,1.833931,99
29,1,1,1,1.612064,100
29,0,1,0,1.518883,101
29,0,1,0,1.518103,102
29,0,1,0,2.724467,103
29,1,1,1,1.725763,104
29,1,1,1,1.426781,105
29,0,1,0,2.688452,106
29,1,1,1,2.901617,107
29,1,1,1,NA,108
29,1,1,1,2.956708,109
29,0,1,0,2.596537,110
29,1,1,1,1.518196,111
29,1,1,1,1.504614,112
30,0,0,1,2.544823,1
30,1,1,1,2.347268,2
30,0,0,1,1.492328,3
30,1,1,1,3.902637,4
30,0,0,1,1.404205,5
30,0,0,1,1.406788,6
30,0,0,1,1.289566,7
30,0,0,1,3.045836,8
30,1,1,1,1.516697,9
30,0,0,1,1.734017,10
30,0,1,0,2.390239,11
30,0,0,1,1.922997,12
30,0,0,1,1.735139,13
30,0,0,1,1.911798,14
30,1,1,1,2.696141,15
30,0,0,1,1.298089,16
30,0,0,1,1.821194,17
30,0,0,1,1.391531,18
30,0,0,1,1.391647,19
30,0,0,1,1.37986,20
30,1,1,1,2.89274,21
30,0,0,1,1.366459,22
30,0,0,1,1.164723,23
30,0,0,1,1.408356,24
30,1,1,1,1.71915,25
30,1,1,1,2.280688,26
30,1,1,1,2.389917,27
30,0,1,0,2.062625,28
30,0,0,1,1.3835,29
30,1,1,1,4.866603,30
30,0,0,1,2.577462,31
30,0,0,1,1.296676,32
30,0,0,1,1.188837,33
30,0,0,1,1.922406,34
30,1,1,1,2.797133,35
30,1,1,1,1.407804,36
30,0,0,1,2.592931,37
30,0,0,1,1.40539,38
30,1,1,1,NA,39
30,1,1,1,1.374562,40
30,0,0,1,1.281134,41
30,0,0,1,1.273764,42
30,0,0,1,1.173014,43
30,1,1,1,2.469206,44
30,1,1,1,2.064163,45
30,1,1,1,2.054979,46
30,1,0,0,1.820014,47
30,1,1,1,1.696211,48
30,0,0,1,1.376458,49
30,1,1,1,2.048246,50
30,1,1,1,2.188368,51
30,0,0,1,3.34554,52
30,0,0,1,1.719333,53
30,1,1,1,1.71965,54
30,1,1,1,2.152817,55
30,1,0,0,1.406891,56
30,1,1,1,1.408436,57
30,0,0,1,1.829808,58
30,1,1,1,NA,59
30,0,1,0,1.735373,60
30,1,1,1,1.203796,61
30,1,1,1,1.414007,62
30,1,0,0,1.845846,63
30,1,1,1,1.719224,64
30,0,0,1,2.563756,65
30,1,1,1,3.267865,66
30,0,0,1,1.586879,67
30,1,0,0,2.374713,68
30,1,1,1,1.704456,69
30,1,1,1,1.500642,70
30,1,1,1,1.938126,71
30,0,0,1,1.501145,72
30,1,1,1,1.626034,73
30,0,0,1,1.407026,74
30,1,1,1,1.719981,75
30,1,1,1,3.360819,76
30,1,1,1,1.641623,77
30,0,0,1,2.485785,78
30,1,1,1,1.610388,79
30,1,1,1,1.283037,80
30,1,1,1,1.491533,81
30,0,0,1,1.516858,82
30,0,0,1,1.406869,83
30,0,0,1,1.313201,84
30,0,0,1,1.413124,85
30,1,1,1,2.154817,86
30,0,0,1,1.84485,87
30,0,0,1,NA,88
30,1,1,1,1.373697,89
30,1,1,1,1.189235,90
30,1,1,1,1.64153,91
30,0,0,1,1.500734,92
30,0,0,1,1.392523,93
30,0,0,1,2.673833,94
30,0,1,0,2.281151,95
30,1,1,1,1.813676,96
30,1,1,1,2.235943,97
30,0,0,1,2.89591,98
30,1,1,1,1.930738,99
30,1,1,1,1.20371,100
30,0,0,1,1.493206,101
30,1,1,1,1.500253,102
30,1,0,0,1.500323,103
30,0,0,1,2.28291,104
30,0,0,1,1.59448,105
30,1,1,1,2.374896,106
30,1,1,1,4.799655,107
30,0,0,1,3.376481,108
30,1,1,1,NA,109
30,0,0,1,1.500493,110
30,1,1,1,1.720481,111
30,1,1,1,2.017735,112
31,0,0,1,2.401435,1
31,1,1,1,1.602984,2
31,1,1,1,1.573654,3
31,0,0,1,1.279449,4
31,1,1,1,1.699665,5
31,1,1,1,1.835986,6
31,0,0,1,1.282901,7
31,0,0,1,1.078979,8
31,0,0,1,0.984465,9
31,0,0,1,0.985755,10
31,1,1,1,1.593126,11
31,1,1,1,1.204187,12
31,0,1,0,1.391599,13
31,0,0,1,1.147943,14
31,0,0,1,1.094822,15
31,0,0,1,1.188589,16
31,0,1,0,1.731772,17
31,0,0,1,1.164105,18
31,0,0,1,1.09415,19
31,1,1,1,1.703615,20
31,1,1,1,1.195501,21
31,1,1,1,1.093535,22
31,0,0,1,1.620931,23
31,1,1,1,1.405749,24
31,0,0,1,2.248311,25
31,1,1,1,2.016732,26
31,0,0,1,1.81316,27
31,0,0,1,1.293244,28
31,1,1,1,1.679918,29
31,0,0,1,NA,30
31,0,0,1,1.075899,31
31,0,0,1,1.089159,32
31,1,0,0,1.799931,33
31,1,1,1,1.280334,34
31,0,0,1,1.712444,35
31,1,0,0,2.166233,36
31,1,1,1,2.059061,37
31,0,0,1,1.809647,38
31,1,0,0,1.187009,39
31,0,0,1,1.25774,40
31,1,0,0,1.209624,41
31,1,1,1,1.297236,42
31,1,0,0,1.589763,43
31,1,1,1,1.389034,44
31,1,1,1,1.414854,45
31,1,1,1,1.423955,46
31,1,1,1,1.099605,47
31,1,1,1,1.187888,48
31,1,0,0,1.517011,49
31,1,1,1,1.821289,50
31,1,1,1,1.579719,51
31,1,1,1,1.298162,52
31,0,0,1,2.375452,53
31,1,1,1,1.376494,54
31,0,1,0,1.2046,55
31,0,1,0,1.094579,56
31,1,1,1,1.085558,57
31,0,0,1,1.495486,58
31,0,0,1,1.920099,59
31,1,0,0,1.500801,60
31,0,0,1,1.086909,61
31,1,1,1,1.288231,62
31,1,1,1,1.095346,63
31,0,1,0,1.524,64
31,1,1,1,1.08715,65
31,0,1,0,1.202323,66
31,1,0,0,1.600415,67
31,0,0,1,1.193931,68
31,0,0,1,1.294639,69
31,1,0,0,1.812606,70
31,0,0,1,1.204775,71
31,0,0,1,0.985636,72
31,1,1,1,1.501402,73
31,0,0,1,1.399087,74
31,0,1,0,1.398405,75
31,1,1,1,1.072229,76
31,1,1,1,1.18926,77
31,0,0,1,1.295361,78
31,0,0,1,1.929779,79
31,0,0,1,1.309929,80
31,0,0,1,1.187981,81
31,0,0,1,0.975922,82
31,1,1,1,1.180307,83
31,1,1,1,1.500798,84
31,1,1,1,1.086432,85
31,1,1,1,1.090797,86
31,0,1,0,1.200249,87
31,0,0,1,1.718606,88
31,1,1,1,2.032281,89
31,1,1,1,1.850613,90
31,0,1,0,1.523973,91
31,0,0,1,1.531657,92
31,0,0,1,1.085402,93
31,1,0,0,1.313332,94
31,1,1,1,1.173557,95
31,1,1,1,1.485737,96
31,1,1,1,1.203125,97
31,1,1,1,1.719959,98
31,1,1,1,1.313633,99
31,0,0,1,1.283231,100
31,1,1,1,1.517042,101
31,0,0,1,1.29816,102
31,1,1,1,1.938031,103
31,0,0,1,2.126545,104
31,0,1,0,1.595288,105
31,1,1,1,1.478028,106
31,0,0,1,1.711582,107
31,1,1,1,1.406481,108
31,0,0,1,1.698208,109
31,0,1,0,1.397388,110
31,0,1,0,1.383218,111
31,0,1,0,1.610732,112
32,1,1,1,2.489271,1
32,1,1,1,NA,2
32,0,0,1,1.380766,3
32,1,0,0,2.098315,4
32,1,1,1,1.169098,5
32,1,1,1,1.313604,6
32,0,0,1,1.298024,7
32,0,0,1,1.286129,8
32,0,0,1,1.608837,9
32,0,0,1,1.264594,10
32,0,0,1,1.172057,11
32,1,1,1,2.377158,12
32,1,1,1,1.978001,13
32,1,0,0,2.342635,14
32,0,0,1,2.160842,15
32,0,1,0,1.537361,16
32,0,0,1,1.382292,17
32,1,1,1,2.207122,18
32,0,1,0,NA,19
32,0,1,0,1.16355,20
32,0,0,1,1.47992,21
32,0,0,1,1.179605,22
32,0,0,1,1.616701,23
32,0,0,1,0.984019,24
32,1,1,1,1.393601,25
32,1,1,1,1.04048,26
32,1,1,1,NA,27
32,0,0,1,2.35671,28
32,0,0,1,1.148382,29
32,1,0,0,1.313687,30
32,1,0,0,1.169827,31
32,0,0,1,1.164281,32
32,1,1,1,1.468683,33
32,1,1,1,1.920972,34
32,0,1,0,0.976745,35
32,0,0,1,1.611718,36
32,0,0,1,0.969987,37
32,0,0,1,0.986521,38
32,0,0,1,1.516548,39
32,1,1,1,1.486362,40
32,0,0,1,1.570718,41
32,0,1,0,1.56187,42
32,1,0,0,1.679621,43
32,0,1,0,1.041559,44
32,1,1,1,0.976652,45
32,1,1,1,1.083139,46
32,1,1,1,1.093872,47
32,1,0,0,1.406766,48
32,0,0,1,1.257936,49
32,0,0,1,2.509909,50
32,1,1,1,1.818833,51
32,0,0,1,1.710038,52
32,0,0,1,1.295865,53
32,1,1,1,1.280331,54
32,0,0,1,1.464036,55
32,0,0,1,1.260003,56
32,0,0,1,NA,57
32,1,1,1,1.396828,58
32,1,1,1,1.196722,59
32,0,0,1,1.500252,60
32,1,1,1,1.251416,61
32,1,1,1,1.312342,62
32,0,0,1,1.382214,63
32,1,1,1,1.14093,64
32,0,0,1,2.383265,65
32,0,0,1,1.14207,66
32,1,1,1,1.182789,67
32,0,1,0,1.703085,68
32,0,0,1,1.395289,69
32,0,0,1,0.974229,70
32,0,0,1,1.189039,71
32,1,1,1,1.282663,72
32,0,0,1,1.609168,73
32,1,1,1,1.03931,74
32,1,0,0,NA,75
32,0,0,1,1.5805,76
32,1,1,1,1.367054,77
32,1,1,1,1.085942,78
32,1,1,1,0.976645,79
32,1,1,1,1.085224,80
32,0,0,1,1.491693,81
32,0,0,1,1.460269,82
32,1,0,0,2.526746,83
32,1,0,0,1.65548,84
32,1,1,1,1.05345,85
32,0,0,1,1.398223,86
32,1,1,1,1.146897,87
32,0,0,1,2.117281,88
32,1,1,1,1.586249,89
32,0,1,0,2.123151,90
32,1,1,1,1.258367,91
32,0,1,0,1.423791,92
32,0,0,1,2.344845,93
32,0,0,1,1.374982,94
32,1,1,1,1.284477,95
32,1,1,1,1.312489,96
32,0,1,0,2.179921,97
32,1,1,1,1.086076,98
32,1,0,0,1.298253,99
32,1,1,1,1.239203,100
32,1,1,1,1.174822,101
32,1,1,1,2.32049,102
32,0,0,1,1.613902,103
32,0,1,0,1.273452,104
32,0,1,0,1.093223,105
32,1,1,1,1.414771,106
32,1,1,1,1.195401,107
32,0,1,0,1.086078,108
32,1,0,0,1.60993,109
32,1,1,1,1.282332,110
32,1,0,0,1.299064,111
32,1,1,1,1.147158,112
33,0,0,1,0.980362,1
33,0,0,1,1.432704,2
33,1,1,1,1.633832,3
33,1,1,1,1.499553,4
33,1,1,1,1.099983,5
33,0,0,1,1.691406,6
33,0,1,0,1.499478,7
33,1,1,1,1.186391,8
33,0,0,1,1.713697,9
33,0,0,1,0.99164,10
33,1,0,0,0.976151,11
33,1,0,0,0.982138,12
33,1,1,1,1.520438,13
33,0,1,0,1.204056,14
33,0,0,1,2.276386,15
33,0,0,1,NA,16
33,0,1,0,1.41089,17
33,1,1,1,2.030043,18
33,1,1,1,1.500431,19
33,1,1,1,1.308966,20
33,1,0,0,1.507373,21
33,0,0,1,1.069884,22
33,1,0,0,1.090431,23
33,1,1,1,1.286898,24
33,0,0,1,1.614088,25
33,1,0,0,2.556918,26
33,1,1,1,1.621225,27
33,0,1,0,1.206545,28
33,1,1,1,2.082772,29
33,0,1,0,0.985934,30
33,0,0,1,2.604825,31
33,1,1,1,1.923705,32
33,0,0,1,1.725999,33
33,1,1,1,1.795595,34
33,0,1,0,1.833348,35
33,0,0,1,1.515364,36
33,0,0,1,1.549866,37
33,1,1,1,2.911203,38
33,0,1,0,1.188946,39
33,0,0,1,1.728657,40
33,0,1,0,2.77763,41
33,0,1,0,0.99135,42
33,0,0,1,1.616785,43
33,0,0,1,1.198627,44
33,0,0,1,1.093955,45
33,1,1,1,1.712755,46
33,1,1,1,1.076935,47
33,1,1,1,1.100465,48
33,0,1,0,0.879116,49
33,0,1,0,1.077217,50
33,1,1,1,1.529875,51
33,1,1,1,1.203772,52
33,1,1,1,1.089809,53
33,0,0,1,1.523381,54
33,1,1,1,1.815589,55
33,0,0,1,1.513841,56
33,1,0,0,NA,57
33,1,1,1,1.83666,58
33,1,1,1,1.090866,59
33,0,1,0,0.85503,60
33,1,1,1,0.876246,61
33,0,0,1,1.715714,62
33,1,1,1,1.088812,63
33,1,1,1,NA,64
33,1,1,1,NA,65
33,0,1,0,0.879712,66
33,0,0,1,1.403765,67
33,0,0,1,1.480768,68
33,1,1,1,1.605959,69
33,1,1,1,0.876131,70
33,1,1,1,0.755091,71
33,0,1,0,0.986087,72
33,1,1,1,1.215802,73
33,0,1,0,0.980267,74
33,0,0,1,1.911205,75
33,1,1,1,1.276042,76
33,0,0,1,1.505032,77
33,1,0,0,1.708798,78
33,1,0,0,1.398183,79
33,0,0,1,2.26543,80
33,1,1,1,1.703161,81
33,0,1,0,0.976594,82
33,0,1,0,1.200995,83
33,0,1,0,1.077966,84
33,1,1,1,2.269218,85
33,1,1,1,0.973763,86
33,1,1,1,1.41357,87
33,1,1,1,0.979738,88
33,0,1,0,1.098576,89
33,1,1,1,1.1024640000000001,90
33,1,0,0,2.336482,91
33,0,0,1,2.398027,92
33,0,0,1,0.992457,93
33,0,0,1,2.847413,94
33,0,0,1,1.831273,95
33,1,1,1,1.285008,96
33,0,0,1,1.608505,97
33,0,0,1,1.633902,98
33,1,0,0,0.98674,99
33,0,0,1,1.274209,100
33,0,0,1,1.493879,101
33,1,1,1,1.645181,102
33,1,1,1,1.092276,103
33,0,1,0,1.212628,104
33,1,0,0,NA,105
33,0,0,1,1.201918,106
33,0,0,1,1.101823,107
33,1,1,1,2.292169,108
33,0,0,1,1.507821,109
33,1,0,0,NA,110
33,1,0,0,1.320264,111
33,1,0,0,NA,112
34,0,0,1,2.002829,1
34,1,1,1,1.890007,2
34,0,0,1,1.885715,3
34,0,1,0,2.296644,4
34,0,0,1,1.480239,5
34,1,1,1,1.568509,6
34,1,1,1,1.479172,7
34,0,0,1,1.360362,8
34,1,1,1,1.357861,9
34,0,0,1,1.795567,10
34,1,0,0,2.672371,11
34,1,1,1,1.57671,12
34,1,0,0,NA,13
34,1,1,1,1.813151,14
34,0,0,1,1.353613,15
34,0,0,1,1.089402,16
34,1,1,1,1.61322,17
34,1,1,1,NA,18
34,1,1,1,2.20235,19
34,1,1,1,1.487266,20
34,0,0,1,2.329322,21
34,1,1,1,1.666569,22
34,0,0,1,1.350825,23
34,1,1,1,2.447856,24
34,0,0,1,1.263911,25
34,0,0,1,1.65649,26
34,0,0,1,1.486866,27
34,1,0,0,2.496755,28
34,0,0,1,1.193814,29
34,1,0,0,1.315411,30
34,0,0,1,1.199484,31
34,0,0,1,0.996423,32
34,1,1,1,1.391568,33
34,0,0,1,1.386671,34
34,1,1,1,1.415235,35
34,0,0,1,1.714867,36
34,1,0,0,1.412585,37
34,0,0,1,1.092541,38
34,0,0,1,1.297538,39
34,1,1,1,1.493652,40
34,0,1,0,1.38171,41
34,0,0,1,1.601804,42
34,0,0,1,1.523698,43
34,0,0,1,1.536777,44
34,1,1,1,1.711732,45
34,0,0,1,1.47661,46
34,0,0,1,1.091769,47
34,1,1,1,1.627111,48
34,1,1,1,1.362751,49
34,0,0,1,1.471433,50
34,0,0,1,1.089832,51
34,1,1,1,1.822391,52
34,0,0,1,1.40333,53
34,1,1,1,1.585601,54
34,1,1,1,2.37855,55
34,1,1,1,1.201159,56
34,1,1,1,1.194116,57
34,1,0,0,1.375447,58
34,0,0,1,1.074516,59
34,0,0,1,1.095675,60
34,0,0,1,0.989965,61
34,0,0,1,1.091419,62
34,0,0,1,1.099008,63
34,1,1,1,1.614712,64
34,0,0,1,1.383639,65
34,1,0,0,2.133648,66
34,1,1,1,1.825798,67
34,0,0,1,2.22424,68
34,1,1,1,1.504084,69
34,0,1,0,1.443823,70
34,1,0,0,2.650948,71
34,0,0,1,1.17703,72
34,1,1,1,1.847411,73
34,0,0,1,1.512684,74
34,0,0,1,1.394891,75
34,1,1,1,1.843267,76
34,0,0,1,1.509652,77
34,1,1,1,1.389779,78
34,0,0,1,1.493208,79
34,1,1,1,1.400001,80
34,1,1,1,1.381158,81
34,0,0,1,1.375791,82
34,0,1,0,1.808946,83
34,0,0,1,1.250798,84
34,1,1,1,2.781478,85
34,1,1,1,1.266695,86
34,0,1,0,NA,87
34,1,1,1,2.216517,88
34,1,1,1,2.179447,89
34,0,0,1,1.49457,90
34,1,1,1,1.502089,91
34,1,1,1,1.276462,92
34,0,0,1,1.176361,93
34,0,0,1,1.169988,94
34,0,0,1,1.719279,95
34,1,1,1,1.734903,96
34,0,0,1,1.288723,97
34,1,1,1,1.704745,98
34,1,1,1,1.296424,99
34,0,0,1,1.621665,100
34,1,1,1,2.247004,101
34,0,1,0,1.492782,102
34,1,1,1,1.174505,103
34,1,1,1,0.977855,104
34,1,1,1,1.089574,105
34,1,1,1,1.203563,106
34,1,1,1,1.099586,107
34,0,0,1,1.410957,108
34,1,0,0,NA,109
34,0,0,1,1.301715,110
34,0,0,1,1.090154,111
34,1,1,1,1.735601,112
35,0,0,1,1.308696,1
35,1,1,1,1.595477,2
35,1,1,1,1.208121,3
35,1,1,1,1.410639,4
35,1,1,1,1.203204,5
35,1,1,1,NA,6
35,0,1,0,1.085234,7
35,0,0,1,1.393692,8
35,1,1,1,1.619597,9
35,1,1,1,1.103114,10
35,0,0,1,1.507865,11
35,0,0,1,1.073825,12
35,1,1,1,1.932634,13
35,1,0,0,1.252982,14
35,0,0,1,1.366563,15
35,1,1,1,1.530709,16
35,0,0,1,1.292259,17
35,1,1,1,1.515063,18
35,0,0,1,1.477692,19
35,0,0,1,1.600952,20
35,0,0,1,2.420243,21
35,0,0,1,0.982935,22
35,0,0,1,1.092331,23
35,0,1,0,NA,24
35,0,0,1,1.507387,25
35,0,0,1,1.204749,26
35,0,0,1,0.983793,27
35,1,1,1,1.501552,28
35,1,1,1,1.46712,29
35,0,0,1,1.701155,30
35,1,1,1,1.746739,31
35,1,1,1,1.582731,32
35,1,0,0,1.350577,33
35,1,1,1,1.38972,34
35,1,0,0,1.065237,35
35,0,0,1,1.811022,36
35,1,1,1,1.728842,37
35,0,1,0,1.802442,38
35,1,1,1,1.292321,39
35,0,0,1,1.270755,40
35,0,0,1,1.269614,41
35,0,0,1,0.979034,42
35,1,0,0,1.286018,43
35,0,1,0,1.839067,44
35,1,1,1,1.387699,45
35,1,1,1,1.104006,46
35,1,0,0,1.3866560000000001,47
35,1,0,0,NA,48
35,0,1,0,1.478815,49
35,1,1,1,1.088085,50
35,0,0,1,1.6130660000000001,51
35,1,0,0,1.521951,52
35,1,0,0,1.403459,53
35,0,0,1,1.509366,54
35,0,0,1,1.208467,55
35,0,0,1,0.988865,56
35,1,1,1,1.962882,57
35,1,1,1,1.680381,58
35,0,0,1,1.599993,59
35,0,0,1,1.188244,60
35,1,1,1,1.806124,61
35,1,1,1,2.925299,62
35,0,0,1,1.410865,63
35,1,1,1,1.940635,64
35,0,0,1,1.394837,65
35,0,0,1,1.191433,66
35,1,0,0,NA,67
35,1,1,1,2.776436,68
35,1,1,1,1.606694,69
35,1,1,1,1.20499,70
35,0,0,1,1.80592,71
35,0,0,1,1.102718,72
35,0,0,1,1.208061,73
35,0,0,1,1.186883,74
35,0,0,1,NA,75
35,1,1,1,1.600973,76
35,1,1,1,1.096285,77
35,1,1,1,1.189295,78
35,0,0,1,1.714276,79
35,0,0,1,1.311309,80
35,0,1,0,1.936006,81
35,1,1,1,1.201634,82
35,1,1,1,2.355743,83
35,1,1,1,1.959651,84
35,0,0,1,1.611593,85
35,1,1,1,1.834149,86
35,0,1,0,1.932709,87
35,1,1,1,2.020239,88
35,0,0,1,1.585659,89
35,0,0,1,1.077472,90
35,0,0,1,1.095825,91
35,0,0,1,1.101167,92
35,1,1,1,1.631134,93
35,0,0,1,1.507112,94
35,0,1,0,1.260524,95
35,0,1,0,1.102,96
35,0,0,1,1.512602,97
35,1,1,1,1.600708,98
35,1,0,0,NA,99
35,0,1,0,1.598159,100
35,1,1,1,1.105654,101
35,1,1,1,1.204964,102
35,1,1,1,NA,103
35,1,1,1,2.033226,104
35,1,1,1,1.491376,105
35,0,0,1,1.921891,106
35,1,1,1,1.858157,107
35,0,0,1,1.408011,108
35,1,1,1,2.161472,109
35,0,1,0,2.41253,110
35,1,1,1,1.299179,111
35,0,0,1,1.389171,112
36,0,0,1,1.785809,1
36,1,0,0,1.950058,2
36,1,1,1,1.490048,3
36,1,1,1,1.099192,4
36,1,1,1,0.987961,5
36,1,1,1,1.101299,6
36,1,1,1,1.089974,7
36,0,0,1,1.38673,8
36,0,0,1,1.603302,9
36,1,1,1,1.940182,10
36,1,1,1,1.16602,11
36,0,0,1,1.341325,12
36,0,0,1,1.377288,13
36,0,0,1,0.974585,14
36,1,1,1,1.481261,15
36,1,1,1,1.282345,16
36,0,0,1,1.30943,17
36,0,0,1,1.506397,18
36,1,1,1,1.283623,19
36,1,1,1,1.259844,20
36,0,0,1,0.956835,21
36,1,1,1,1.074374,22
36,1,1,1,1.264771,23
36,0,0,1,NA,24
36,1,1,1,1.74746,25
36,0,0,1,1.07083,26
36,0,0,1,1.179694,27
36,0,0,1,1.050538,28
36,0,0,1,1.083754,29
36,0,0,1,0.970126,30
36,1,1,1,1.285956,31
36,1,1,1,2.009872,32
36,1,1,1,1.497578,33
36,0,0,1,1.289454,34
36,1,0,0,1.569427,35
36,1,1,1,1.259534,36
36,0,0,1,1.043058,37
36,0,0,1,1.276924,38
36,0,0,1,NA,39
36,1,1,1,1.184465,40
36,1,1,1,NA,41
36,1,1,1,1.386623,42
36,0,0,1,1.414644,43
36,0,0,1,1.714264,44
36,0,1,0,1.272805,45
36,0,0,1,1.27227,46
36,0,0,1,1.462239,47
36,1,1,1,1.291465,48
36,0,0,1,1.400811,49
36,1,1,1,1.085832,50
36,0,0,1,0.977083,51
36,0,0,1,1.375777,52
36,1,1,1,1.315197,53
36,1,1,1,1.37752,54
36,1,1,1,1.376456,55
36,1,1,1,1.913935,56
36,0,0,1,1.098808,57
36,0,0,1,1.173727,58
36,0,0,1,1.053255,59
36,0,0,1,1.050117,60
36,0,0,1,1.15412,61
36,1,0,0,1.06111,62
36,0,0,1,1.047962,63
36,0,0,1,0.959804,64
36,1,1,1,1.266932,65
36,1,1,1,1.39058,66
36,1,1,1,1.672801,67
36,1,1,1,1.405967,68
36,0,1,0,2.115962,69
36,0,1,0,1.294738,70
36,1,1,1,1.468703,71
36,0,0,1,NA,72
36,1,1,1,1.195954,73
36,1,1,1,1.258897,74
36,1,1,1,1.18462,75
36,0,0,1,1.394869,76
36,1,1,1,0.978508,77
36,1,1,1,1.280535,78
36,1,1,1,NA,79
36,0,0,1,1.259651,80
36,0,0,1,1.305531,81
36,1,1,1,NA,82
36,0,0,1,1.3005,83
36,0,0,1,1.092968,84
36,0,0,1,1.211762,85
36,1,1,1,1.836127,86
36,1,1,1,NA,87
36,0,0,1,1.487725,88
36,0,1,0,1.304034,89
36,1,1,1,1.392711,90
36,0,0,1,1.67719,91
36,1,1,1,1.158413,92
36,1,1,1,1.166111,93
36,0,0,1,1.610457,94
36,1,1,1,1.167012,95
36,0,0,1,2.108458,96
36,0,0,1,1.384817,97
36,0,0,1,1.059849,98
36,1,1,1,1.28274,99
36,0,0,1,1.073448,100
36,0,0,1,1.04508,101
36,1,1,1,1.284703,102
36,0,0,1,1.05875,103
36,0,0,1,1.397992,104
36,1,1,1,1.384777,105
36,0,0,1,1.16748,106
36,1,1,1,1.780413,107
36,1,1,1,NA,108
36,1,1,1,1.683426,109
36,1,1,1,1.601397,110
36,1,1,1,1.301931,111
36,0,1,0,2.074178,112
37,0,1,0,0.982143,1
37,0,1,0,1.32866,2
37,0,1,0,0.764768,3
37,1,0,0,0.981435,4
37,1,0,0,0.762931,5
37,1,0,0,1.095459,6
37,1,0,0,1.195445,7
37,0,1,0,1.08145,8
37,0,1,0,0.765741,9
37,1,1,1,0.756307,10
37,0,1,0,0.755972,11
37,0,1,0,0.755045,12
37,1,0,0,1.805604,13
37,1,0,0,0.764658,14
37,0,0,1,0.757208,15
37,0,0,1,0.756187,16
37,1,0,0,1.648091,17
37,1,1,1,1.298048,18
37,1,1,1,0.766936,19
37,1,1,1,0.757722,20
37,0,1,0,0.756879,21
37,0,1,0,0.750569,22
37,1,1,1,0.758059,23
37,0,0,1,1.419608,24
37,1,0,0,0.766296,25
37,0,0,1,NA,26
37,1,0,0,1.333951,27
37,1,1,1,NA,28
37,0,1,0,NA,29
37,0,0,1,1.306208,30
37,0,0,1,NA,31
37,1,0,0,0.876317,32
37,1,0,0,0.767327,33
37,1,0,0,1.84811,34
37,0,1,0,1.407291,35
37,0,1,0,1.313937,36
37,0,1,0,NA,37
37,0,1,0,1.314334,38
37,1,1,1,0.766739,39
37,1,1,1,0.757568,40
37,0,1,0,0.865605,41
37,0,1,0,0.849832,42
37,1,1,1,1.639102,43
37,0,1,0,0.766815,44
37,1,1,1,0.748592,45
37,0,0,1,NA,46
37,1,0,0,0.766598,47
37,0,0,1,0.86781,48
37,1,0,0,NA,49
37,0,0,1,1.758702,50
37,0,0,1,0.876238,51
37,0,0,1,0.859177,52
37,0,1,0,1.07872,53
37,1,1,1,1.317246,54
37,0,1,0,NA,55
37,0,1,0,0.873567,56
37,0,0,1,0.878554,57
37,1,0,0,0.866571,58
37,1,0,0,0.869516,59
37,0,0,1,1.088416,60
37,0,0,1,1.085845,61
37,1,0,0,NA,62
37,0,0,1,0.867342,63
37,1,1,1,1.492926,64
37,0,1,0,0.87699800000000006,65
37,1,1,1,0.876094,66
37,1,1,1,1.723102,67
37,0,1,0,0.860045,68
37,1,0,0,NA,69
37,1,0,0,0.867277,70
37,0,0,1,0.866661,71
37,1,0,0,0.866603,72
37,0,0,1,NA,73
37,0,0,1,0.961496,74
37,1,0,0,0.877118,75
37,0,0,1,0.879988,76
37,0,0,1,0.866563,77
37,1,0,0,1.085692,78
37,1,0,0,0.87899,79
37,0,0,1,0.971173,80
37,1,0,0,0.875369,81
37,0,0,1,0.866698,82
37,0,0,1,0.866678,83
37,1,0,0,1.08924,84
37,1,0,0,0.876634,85
37,0,0,1,0.866336,86
37,1,0,0,0.866698,87
37,0,0,1,NA,88
37,0,0,1,0.763065,89
37,1,0,0,0.65904,90
37,1,0,0,0.727183,91
37,1,0,0,0.650596,92
37,1,0,0,0.7712,93
37,0,0,1,0.684088,94
37,0,0,1,0.694527,95
37,0,0,1,0.666353,96
37,0,0,1,0.763503,97
37,1,0,0,0.712533,98
37,1,0,0,0.697983,99
37,0,0,1,0.705756,100
37,1,0,0,0.742021,101
37,1,0,0,0.593136,102
37,1,1,1,1.545208,103
37,0,1,0,0.866324,104
37,1,1,1,NA,105
37,1,1,1,0.776098,106
37,0,1,0,0.621079,107
37,1,1,1,NA,108
37,1,1,1,0.541567,109
37,0,1,0,NA,110
37,1,1,1,0.594663,111
37,1,1,1,NA,112
38,0,0,1,1.939277,1
38,1,1,1,1.780059,2
38,0,0,1,1.589618,3
38,1,1,1,1.658563,4
38,0,0,1,1.788864,5
38,0,0,1,1.096588,6
38,0,0,1,1.092388,7
38,1,1,1,1.647573,8
38,1,1,1,2.028743,9
38,0,0,1,1.663577,10
38,1,1,1,1.905041,11
38,0,0,1,1.15419,12
38,0,0,1,1.287192,13
38,1,1,1,1.952071,14
38,1,0,0,NA,15
38,1,1,1,2.573839,16
38,1,1,1,1.781555,17
38,1,1,1,1.596066,18
38,1,1,1,1.43638,19
38,0,0,1,1.850901,20
38,1,1,1,NA,21
38,1,1,1,1.691521,22
38,0,0,1,2.018913,23
38,0,0,1,1.41339,24
38,1,1,1,2.596281,25
38,1,1,1,NA,26
38,0,0,1,1.840629,27
38,1,1,1,2.681504,28
38,0,0,1,1.290246,29
38,0,0,1,1.341349,30
38,0,0,1,1.173872,31
38,1,1,1,NA,32
38,0,1,0,3.318455,33
38,0,0,1,1.462075,34
38,0,0,1,1.501133,35
38,1,1,1,1.629024,36
38,1,1,1,1.49636,37
38,0,0,1,1.675388,38
38,0,0,1,1.28757,39
38,0,0,1,1.666988,40
38,1,1,1,2.476647,41
38,0,0,1,1.278356,42
38,1,1,1,2.335813,43
38,1,1,1,2.799605,44
38,0,0,1,1.632667,45
38,1,1,1,NA,46
38,1,1,1,1.678969,47
38,1,1,1,1.316926,48
38,1,1,1,1.732128,49
38,0,0,1,1.808265,50
38,0,0,1,1.502846,51
38,1,1,1,2.361871,52
38,0,0,1,1.392819,53
38,0,0,1,1.710895,54
38,0,0,1,2.248313,55
38,0,0,1,2.037047,56
38,0,0,1,1.419116,57
38,1,1,1,2.909349,58
38,1,1,1,NA,59
38,0,0,1,1.90193,60
38,1,1,1,1.823015,61
38,0,0,1,1.471814,62
38,1,1,1,2.009756,63
38,1,1,1,NA,64
38,1,1,1,2.354066,65
38,1,1,1,2.149702,66
38,0,0,1,1.586572,67
38,1,1,1,NA,68
38,1,1,1,1.693332,69
38,0,0,1,1.712871,70
38,0,0,1,1.521871,71
38,1,1,1,1.954503,72
38,1,1,1,2.703517,73
38,1,1,1,1.639881,74
38,0,0,1,1.723168,75
38,0,0,1,NA,76
38,1,1,1,1.726643,77
38,0,0,1,1.855223,78
38,1,1,1,1.940705,79
38,0,0,1,1.602473,80
38,0,0,1,1.604399,81
38,1,1,1,2.06629,82
38,1,0,0,2.890924,83
38,0,1,0,1.610909,84
38,1,1,1,1.95738,85
38,0,0,1,1.61793,86
38,1,1,1,1.59164,87
38,0,0,1,1.809469,88
38,1,1,1,2.500814,89
38,1,1,1,1.614585,90
38,1,1,1,1.426654,91
38,0,0,1,1.511218,92
38,1,1,1,1.691081,93
38,1,1,1,1.627169,94
38,0,0,1,1.706917,95
38,0,0,1,1.777627,96
38,1,1,1,1.753722,97
38,0,0,1,1.396293,98
38,0,0,1,1.105356,99
38,1,1,1,2.312497,100
38,1,1,1,2.99758,101
38,0,1,0,2.451448,102
38,0,0,1,1.71131,103
38,1,1,1,1.820319,104
38,0,0,1,1.491709,105
38,0,1,0,2.35824,106
38,0,0,1,1.728223,107
38,1,1,1,2.285609,108
38,1,1,1,1.820511,109
38,0,0,1,2.254309,110
38,0,0,1,1.518939,111
38,0,0,1,1.610658,112
39,0,1,0,2.823616,1
39,0,1,0,1.62027,2
39,0,1,0,1.532506,3
39,0,1,0,1.641624,4
39,1,1,1,1.522669,5
39,1,1,1,1.530873,6
39,1,1,1,1.532329,7
39,0,0,1,2.271398,8
39,1,1,1,2.066093,9
39,0,0,1,1.942693,10
39,1,1,1,2.145966,11
39,1,1,1,1.751436,12
39,1,1,1,1.735907,13
39,0,1,0,2.590085,14
39,1,1,1,1.645214,15
39,1,0,0,2.787064,16
39,1,1,1,2.046785,17
39,1,0,0,1.939189,18
39,0,1,0,1.952448,19
39,0,0,1,1.938878,20
39,1,1,1,2.15829,21
39,0,0,1,1.960546,22
39,1,1,1,1.961711,23
39,1,1,1,2.565908,24
39,1,1,1,1.647709,25
39,1,1,1,1.640736,26
39,0,1,0,1.976516,27
39,0,0,1,2.376529,28
39,0,0,1,1.646011,29
39,1,0,0,1.642029,30
39,0,0,1,1.643522,31
39,1,1,1,1.860765,32
39,1,1,1,1.852573,33
39,1,1,1,1.532685,34
39,0,1,0,1.727652,35
39,1,1,1,1.642024,36
39,0,0,1,2.2794,37
39,1,0,0,NA,38
39,1,1,1,1.707439,39
39,1,1,1,2.675581,40
39,0,0,1,2.081147,41
39,1,1,1,2.040035,42
39,0,1,0,2.168082,43
39,1,1,1,2.342841,44
39,0,0,1,1.959262,45
39,0,1,0,1.946091,46
39,1,1,1,2.036117,47
39,1,1,1,1.864576,48
39,0,0,1,2.033777,49
39,0,1,0,1.832525,50
39,0,0,1,2.047871,51
39,0,1,0,1.941269,52
39,1,1,1,1.521212,53
39,0,0,1,2.168616,54
39,0,0,1,2.366202,55
39,0,1,0,2.152986,56
39,1,0,0,2.723995,57
39,0,0,1,2.052606,58
39,0,0,1,1.754352,59
39,0,0,1,1.524183,60
39,1,1,1,2.064659,61
39,1,1,1,1.53312,62
39,0,0,1,2.04855,63
39,0,1,0,2.262082,64
39,0,0,1,2.993361,65
39,1,0,0,2.458322,66
39,1,1,1,2.896628,67
39,0,1,0,1.189669,68
39,0,1,0,1.74412,69
39,0,0,1,1.945471,70
39,1,1,1,2.048116,71
39,1,1,1,1.75201,72
39,1,1,1,1.864354,73
39,1,1,1,1.642613,74
39,1,1,1,1.970188,75
39,0,0,1,2.26717,76
39,0,0,1,1.958004,77
39,0,0,1,1.53239,78
39,1,0,0,1.532995,79
39,1,1,1,2.243167,80
39,1,1,1,1.755341,81
39,0,0,1,2.26746,82
39,0,1,0,1.940249,83
39,0,1,0,NA,84
39,1,1,1,1.961618,85
39,1,1,1,1.855737,86
39,0,1,0,2.627857,87
39,0,1,0,2.567942,88
39,0,0,1,NA,89
39,1,1,1,2.037655,90
39,1,1,1,2.696082,91
39,1,1,1,2.046656,92
39,1,1,1,1.641887,93
39,0,1,0,1.75227,94
39,0,1,0,1.75206,95
39,1,1,1,1.743143,96
39,0,1,0,1.751963,97
39,0,1,0,1.532665,98
39,1,1,1,1.638059,99
39,1,0,0,2.14942,100
39,0,0,1,1.645319,101
39,0,1,0,2.162233,102
39,1,1,1,1.97071,103
39,0,1,0,1.532871,104
39,0,1,0,1.533554,105
39,0,0,1,2.15866,106
39,0,0,1,1.624361,107
39,1,1,1,2.177204,108
39,0,1,0,1.860419,109
39,1,1,1,1.971057,110
39,1,1,1,1.644642,111
39,1,1,1,1.751973,112
40,1,1,1,2.47289,1
40,0,0,1,1.618951,2
40,1,1,1,1.802461,3
40,0,0,1,1.270387,4
40,0,0,1,1.486252,5
40,0,0,1,0.963855,6
40,0,0,1,0.96085,7
40,1,1,1,1.844396,8
40,1,1,1,1.79992,9
40,1,1,1,2.667939,10
40,0,0,1,3.545484,11
40,1,1,1,2.349838,12
40,1,1,1,1.319539,13
40,0,0,1,1.848468,14
40,0,1,0,3.253537,15
40,1,1,1,1.831344,16
40,1,1,1,2.323661,17
40,1,1,1,1.502535,18
40,1,1,1,1.950494,19
40,1,0,0,1.508418,20
40,1,1,1,1.807974,21
40,0,1,0,2.080993,22
40,0,0,1,1.518866,23
40,1,1,1,1.265484,24
40,0,1,0,1.389179,25
40,1,1,1,1.385481,26
40,1,1,1,NA,27
40,0,0,1,1.638539,28
40,0,0,1,1.792748,29
40,1,0,0,1.373267,30
40,1,1,1,1.619194,31
40,0,0,1,1.835442,32
40,1,1,1,2.607861,33
40,1,0,0,1.40196,34
40,0,0,1,1.175741,35
40,0,0,1,1.374235,36
40,0,1,0,1.801935,37
40,0,1,0,1.816219,38
40,1,1,1,1.19496,39
40,0,0,1,1.511989,40
40,0,1,0,1.816125,41
40,1,1,1,1.591973,42
40,0,0,1,1.515681,43
40,0,1,0,1.799523,44
40,0,0,1,1.290601,45
40,1,1,1,1.15943,46
40,0,1,0,1.510051,47
40,1,0,0,2.761943,48
40,1,1,1,1.485723,49
40,0,0,1,1.173639,50
40,0,0,1,3.220015,51
40,0,1,0,2.17559,52
40,1,1,1,1.601681,53
40,0,0,1,1.590434,54
40,1,0,0,1.38011,55
40,1,1,1,2.489247,56
40,0,0,1,1.578892,57
40,0,0,1,1.384247,58
40,1,0,0,1.065968,59
40,0,0,1,2.008912,60
40,0,0,1,1.512412,61
40,0,0,1,1.39242,62
40,0,0,1,1.41276,63
40,0,0,1,1.494639,64
40,0,0,1,1.505812,65
40,1,1,1,2.544877,66
40,1,1,1,2.560525,67
40,0,0,1,1.313819,68
40,1,0,0,1.288143,69
40,1,1,1,1.683616,70
40,0,0,1,1.159756,71
40,1,1,1,2.155206,72
40,0,0,1,1.703364,73
40,0,0,1,1.214091,74
40,1,1,1,2.919181,75
40,1,1,1,2.475445,76
40,1,0,0,1.811826,77
40,0,0,1,1.17572,78
40,0,0,1,1.075386,79
40,1,0,0,1.521895,80
40,1,1,1,2.012602,81
40,1,0,0,1.067289,82
40,1,1,1,1.786918,83
40,0,0,1,1.038161,84
40,0,0,1,1.472171,85
40,1,0,0,1.579554,86
40,0,0,1,1.381056,87
40,0,0,1,1.158499,88
40,1,0,0,2.998719,89
40,0,1,0,1.697275,90
40,0,1,0,1.612486,91
40,0,0,1,1.045833,92
40,0,0,1,2.430731,93
40,1,1,1,1.58801,94
40,0,0,1,0.970418,95
40,1,0,0,2.906378,96
40,1,1,1,1.306974,97
40,0,0,1,0.860434,98
40,1,0,0,2.880916,99
40,1,1,1,2.152414,100
40,0,0,1,0.955022,101
40,1,0,0,2.478875,102
40,1,1,1,1.405566,103
40,1,1,1,2.101768,104
40,1,1,1,2.511306,105
40,0,0,1,2.248181,106
40,1,0,0,2.116033,107
40,1,1,1,2.230122,108
40,0,0,1,1.60322,109
40,1,0,0,1.809795,110
40,1,1,1,1.8111,111
40,0,0,1,0.968276,112
41,1,1,1,3.432822,1
41,0,0,1,1.709226,2
41,0,0,1,1.522431,3
41,0,0,1,2.07935,4
41,1,0,0,NA,5
41,0,0,1,1.501425,6
41,1,1,1,2.782938,7
41,1,1,1,1.20318,8
41,1,0,0,3.116063,9
41,0,1,0,2.556976,10
41,0,0,1,2.882189,11
41,1,1,1,1.626818,12
41,1,1,1,1.637628,13
41,0,0,1,2.232433,14
41,0,0,1,2.813937,15
41,0,0,1,1.313905,16
41,0,0,1,2.064183,17
41,0,1,0,1.798972,18
41,0,0,1,2.543201,19
41,0,0,1,1.205015,20
41,1,0,0,1.094628,21
41,0,0,1,1.492981,22
41,1,1,1,NA,23
41,1,1,1,2.561378,24
41,1,1,1,1.81469,25
41,0,0,1,1.598193,26
41,0,1,0,1.612295,27
41,0,0,1,1.69565,28
41,1,0,0,1.276966,29
41,0,1,0,1.933404,30
41,0,1,0,3.017056,31
41,1,1,1,1.705307,32
41,1,1,1,1.844177,33
41,1,1,1,2.895444,34
41,1,1,1,1.314467,35
41,1,0,0,1.938716,36
41,1,1,1,2.015205,37
41,1,0,0,3.238865,38
41,0,0,1,2.98391,39
41,1,1,1,2.25733,40
41,1,1,1,1.189183,41
41,0,1,0,1.314058,42
41,0,1,0,1.298579,43
41,1,1,1,1.314413,44
41,0,1,0,2.726367,45
41,1,1,1,1.410881,46
41,1,1,1,2.582924,47
41,0,1,0,1.610923,48
41,0,1,0,2.187434,49
41,0,1,0,1.611235,50
41,1,1,1,1.313642,51
41,0,0,1,2.161115,52
41,1,1,1,2.48868,53
41,1,1,1,1.69506,54
41,1,1,1,1.627634,55
41,0,1,0,1.564627,56
41,0,0,1,2.048985,57
41,1,0,0,1.523106,58
41,0,0,1,1.315762,59
41,0,1,0,2.377224,60
41,0,1,0,1.682822,61
41,0,0,1,2.349541,62
41,1,1,1,1.829758,63
41,0,0,1,2.13013,64
41,1,1,1,1.598867,65
41,0,1,0,3.365114,66
41,1,1,1,NA,67
41,1,1,1,1.613535,68
41,0,0,1,1.516607,69
41,1,1,1,1.727514,70
41,1,1,1,1.3142,71
41,0,0,1,1.723362,72
41,0,0,1,1.417936,73
41,1,1,1,1.835269,74
41,1,1,1,1.411157,75
41,1,1,1,1.939538,76
41,1,1,1,1.295288,77
41,1,1,1,1.080998,78
41,0,1,0,1.863459,79
41,0,0,1,2.043324,80
41,0,1,0,1.913139,81
41,1,1,1,NA,82
41,0,0,1,2.034771,83
41,0,0,1,1.40003,84
41,1,1,1,1.70091,85
41,0,1,0,1.395861,86
41,0,0,1,2.179012,87
41,1,1,1,2.040367,88
41,0,1,0,1.302155,89
41,1,1,1,1.897807,90
41,1,1,1,1.594305,91
41,1,1,1,1.621344,92
41,0,0,1,2.489538,93
41,0,0,1,1.318872,94
41,0,0,1,1.749567,95
41,1,0,0,1.317046,96
41,0,1,0,1.288339,97
41,1,1,1,1.286205,98
41,1,1,1,1.615117,99
41,0,1,0,1.594573,100
41,0,1,0,NA,101
41,1,0,0,1.896767,102
41,1,1,1,1.627181,103
41,1,1,1,1.299163,104
41,0,1,0,2.848837,105
41,0,0,1,2.828189,106
41,1,1,1,2.0384,107
41,0,0,1,2.246794,108
41,0,0,1,1.64799,109
41,1,0,0,1.645229,110
41,1,1,1,1.831766,111
41,1,1,1,1.642812,112
42,0,0,1,2.010676,1
42,1,1,1,1.702614,2
42,1,1,1,1.172985,3
42,1,1,1,1.157911,4
42,0,0,1,1.275264,5
42,0,0,1,1.179766,6
42,1,1,1,1.495419,7
42,0,0,1,1.066509,8
42,0,0,1,1.486268,9
42,1,1,1,1.393755,10
42,1,1,1,1.27027,11
42,0,1,0,1.067378,12
42,1,1,1,1.285831,13
42,0,0,1,1.392006,14
42,1,1,1,1.284707,15
42,1,1,1,1.069724,16
42,1,1,1,1.05053,17
42,1,1,1,0.979986,18
42,0,1,0,1.189661,19
42,0,0,1,1.264289,20
42,0,0,1,1.377482,21
42,0,0,1,1.19291,22
42,1,1,1,1.708138,23
42,0,1,0,1.28252,24
42,0,1,0,1.101875,25
42,1,1,1,2.223968,26
42,0,1,0,0.955407,27
42,1,1,1,0.979445,28
42,0,1,0,0.990036,29
42,0,1,0,0.867847,30
42,0,0,1,NA,31
42,1,1,1,1.374357,32
42,0,0,1,1.28388,33
42,0,1,0,1.389506,34
42,0,1,0,0.985982,35
42,0,0,1,1.411187,36
42,1,1,1,1.167234,37
42,0,0,1,1.471665,38
42,0,0,1,1.370191,39
42,0,1,0,0.971203,40
42,1,1,1,1.045905,41
42,1,1,1,0.962336,42
42,0,1,0,0.962648,43
42,1,1,1,0.962729,44
42,1,1,1,1.174447,45
42,1,1,1,0.957536,46
42,1,1,1,1.066699,47
42,1,1,1,1.396001,48
42,0,1,0,1.396939,49
42,1,1,1,1.181703,50
42,1,1,1,1.79592,51
42,0,0,1,1.371181,52
42,0,0,1,1.261842,53
42,0,1,0,1.406873,54
42,1,1,1,1.383692,55
42,0,0,1,1.497398,56
42,0,0,1,1.501837,57
42,1,1,1,1.066728,58
42,1,1,1,1.163325,59
42,0,0,1,1.483058,60
42,0,0,1,1.281638,61
42,1,0,0,1.264905,62
42,1,0,0,1.56733,63
42,0,1,0,NA,64
42,0,0,1,1.724238,65
42,1,1,1,1.285599,66
42,0,1,0,1.190376,67
42,0,0,1,1.256952,68
42,1,1,1,1.05811,69
42,1,1,1,1.097352,70
42,1,1,1,0.864484,71
42,0,0,1,NA,72
42,0,0,1,1.302696,73
42,0,1,0,1.273987,74
42,0,1,0,1.298655,75
42,1,1,1,1.384594,76
42,0,0,1,1.305665,77
42,1,1,1,1.595219,78
42,0,0,1,1.690292,79
42,0,1,0,1.493454,80
42,0,1,0,0.97354,81
42,1,1,1,0.971543,82
42,0,1,0,0.927152,83
42,0,1,0,0.852108,84
42,0,1,0,0.963089,85
42,1,1,1,0.850906,86
42,1,1,1,0.958388,87
42,1,0,0,2.037151,88
42,1,1,1,1.070841,89
42,0,1,0,0.850248,90
42,0,1,0,0.872486,91
42,1,1,1,1.278812,92
42,0,0,1,NA,93
42,1,1,1,1.927602,94
42,1,1,1,0.867445,95
42,1,1,1,0.767265,96
42,1,1,1,0.880506,97
42,1,1,1,0.976765,98
42,0,1,0,0.98859,99
42,1,0,0,1.712743,100
42,0,1,0,2.035422,101
42,0,1,0,1.288648,102
42,1,1,1,0.991408,103
42,1,1,1,0.874553,104
42,0,1,0,1.097127,105
42,0,1,0,0.985575,106
42,1,1,1,1.954833,107
42,1,1,1,1.083901,108
42,1,1,1,1.766813,109
42,1,1,1,0.980349,110
42,1,1,1,1.864112,111
42,1,1,1,1.19306,112
43,1,1,1,3.738616,1
43,1,1,1,1.743943,2
43,0,0,1,2.482707,3
43,0,0,1,1.306925,4
43,1,1,1,3.852267,5
43,0,0,1,2.129807,6
43,0,1,0,1.95396,7
43,0,0,1,1.392007,8
43,0,0,1,1.317178,9
43,0,0,1,1.195879,10
43,1,1,1,2.164486,11
43,0,1,0,2.260063,12
43,0,0,1,1.625279,13
43,0,0,1,1.257727,14
43,1,0,0,1.808309,15
43,1,1,1,1.053483,16
43,0,1,0,4.088021,17
43,0,0,1,2.799158,18
43,1,1,1,1.584166,19
43,0,0,1,1.391887,20
43,0,0,1,1.599502,21
43,0,0,1,1.917138,22
43,1,1,1,1.799654,23
43,0,0,1,1.285161,24
43,0,0,1,1.579343,25
43,1,0,0,1.690592,26
43,0,0,1,1.487046,27
43,1,1,1,1.056395,28
43,0,1,0,1.949735,29
43,0,1,0,2.549752,30
43,0,1,0,1.931991,31
43,0,1,0,0.867561,32
43,1,1,1,0.984492,33
43,0,0,1,1.411441,34
43,0,1,0,1.587628,35
43,0,0,1,1.514384,36
43,0,0,1,1.805928,37
43,1,1,1,0.751363,38
43,0,0,1,1.171404,39
43,1,1,1,0.964351,40
43,1,1,1,0.546656,41
43,0,0,1,1.17708,42
43,1,1,1,0.430313,43
43,0,0,1,0.426821,44
43,1,1,1,0.633342,45
43,1,0,0,0.751761,46
43,1,1,1,2.932967,47
43,0,0,1,NA,48
43,1,0,0,1.53123,49
43,0,1,0,0.95675,50
43,1,0,0,1.39541,51
43,1,1,1,1.927001,52
43,0,0,1,2.364948,53
43,0,1,0,1.507613,54
43,0,0,1,1.848221,55
43,1,1,1,1.813652,56
43,1,1,1,1.202191,57
43,0,0,1,1.501171,58
43,1,0,0,2.749832,59
43,1,1,1,1.369161,60
43,1,1,1,0.988446,61
43,1,1,1,0.986127,62
43,1,1,1,1.077305,63
43,0,0,1,1.601658,64
43,1,0,0,1.17409,65
43,0,0,1,1.155972,66
43,0,0,1,1.595412,67
43,0,1,0,2.244809,68
43,1,0,0,1.810716,69
43,1,1,1,0.853383,70
43,1,1,1,0.986191,71
43,1,0,0,1.731214,72
43,1,1,1,1.807513,73
43,0,1,0,1.897956,74
43,1,1,1,1.732754,75
43,0,0,1,1.706388,76
43,0,1,0,1.070944,77
43,0,1,0,1.419101,78
43,1,1,1,0.877151,79
43,1,1,1,0.859809,80
43,1,1,1,0.988371,81
43,0,1,0,0.868039,82
43,1,1,1,0.767337,83
43,0,0,1,1.152597,84
43,1,1,1,0.642611,85
43,1,0,0,0.642866,86
43,1,1,1,0.760358,87
43,0,0,1,1.07583,88
43,1,0,0,0.42808,89
43,1,1,1,1.945258,90
43,0,1,0,1.084323,91
43,0,1,0,0.876805,92
43,1,1,1,0.9708,93
43,0,0,1,1.197533,94
43,1,0,0,0.429727,95
43,0,0,1,0.430528,96
43,0,1,0,0.741909,97
43,1,0,0,1.776525,98
43,0,1,0,1.053832,99
43,1,1,1,1.314683,100
43,0,0,1,2.052061,101
43,0,0,1,1.081615,102
43,1,0,0,0.975626,103
43,1,1,1,1.364557,104
43,1,1,1,1.996218,105
43,0,1,0,NA,106
43,1,1,1,NA,107
43,1,0,0,NA,108
43,1,0,0,NA,109
43,1,1,1,NA,110
43,1,0,0,3.212159,111
43,0,0,1,2.865825,112
44,1,1,1,NA,1
44,1,1,1,NA,2
44,1,1,1,1.624483,3
44,0,0,1,1.589551,4
44,0,0,1,0.990003,5
44,1,1,1,1.506605,6
44,1,1,1,1.756714,7
44,1,1,1,1.08536,8
44,1,1,1,1.086887,9
44,1,1,1,0.978545,10
44,1,1,1,1.644727,11
44,1,1,1,0.988607,12
44,0,1,0,1.072797,13
44,1,1,1,0.880496,14
44,0,0,1,1.396319,15
44,0,0,1,1.076135,16
44,1,1,1,1.400815,17
44,1,1,1,1.211387,18
44,0,1,0,0.985098,19
44,0,0,1,1.387141,20
44,1,1,1,1.610067,21
44,0,0,1,1.50629,22
44,0,0,1,1.298065,23
44,1,1,1,1.732367,24
44,1,1,1,1.282084,25
44,0,1,0,1.09222,26
44,0,0,1,1.497552,27
44,0,0,1,0.871877,28
44,1,1,1,1.404384,29
44,1,1,1,1.211372,30
44,0,0,1,1.289663,31
44,0,0,1,0.983478,32
44,1,1,1,1.733673,33
44,1,1,1,1.072919,34
44,1,1,1,1.091528,35
44,0,0,1,1.299516,36
44,1,1,1,1.596162,37
44,1,1,1,0.975816,38
44,1,0,0,2.281264,39
44,0,1,0,NA,40
44,0,0,1,1.389392,41
44,1,1,1,1.30104,42
44,1,1,1,1.672343,43
44,0,0,1,1.500454,44
44,0,0,1,1.093927,45
44,0,0,1,1.539158,46
44,1,1,1,1.180491,47
44,1,1,1,0.873533,48
44,1,1,1,1.185308,49
44,0,0,1,1.483203,50
44,0,0,1,1.083842,51
44,0,0,1,0.87949,52
44,1,1,1,1.407565,53
44,1,1,1,1.171788,54
44,1,1,1,1.210754,55
44,1,1,1,1.095099,56
44,1,1,1,1.545164,57
44,0,1,0,0.983293,58
44,0,1,0,2.368765,59
44,1,1,1,1.092312,60
44,0,1,0,0.990957,61
44,1,1,1,1.301059,62
44,1,1,1,1.092043,63
44,1,1,1,1.54003,64
44,1,1,1,0.985069,65
