id,new_item,new_resp,correct,rt,trial
1,0,0,1,1.085811,1
1,0,0,1,1.092927,2
1,0,0,1,0.98223,3
1,1,1,1,1.48723,4
1,1,1,1,1.087476,5
1,0,0,1,1.595117,6
1,0,0,1,0.982438,7
1,0,0,1,1.375734,8
1,0,1,0,1.499063,9
1,1,1,1,1.083632,10
1,0,0,1,1.49547,11
1,1,1,1,1.385386,12
1,1,1,1,0.869662,13
1,1,1,1,0.990186,14
1,0,0,1,1.390548,15
1,1,1,1,1.405393,16
1,0,0,1,1.494877,17
1,0,1,0,2.173906,18
1,0,0,1,1.360766,19
1,0,0,1,0.959041,20
1,1,1,1,1.489632,21
1,1,1,1,1.461438,22
1,0,1,0,1.409259,23
1,0,0,1,1.698873,24
1,0,0,1,1.588772,25
1,0,1,0,1.266384,26
1,1,1,1,0.963358,27
1,0,0,1,1.284026,28
1,1,1,1,1.27695,29
1,0,0,1,1.297909,30
1,0,0,1,1.166826,31
1,0,0,1,1.60451,32
1,1,1,1,1.392784,33
1,0,1,0,2.106561,34
1,0,0,1,1.178095,35
1,1,1,1,1.378035,36
1,1,1,1,1.584862,37
1,0,1,0,0.985972,38
1,1,1,1,1.108427,39
1,0,0,1,1.393573,40
1,1,1,1,1.40577,41
1,1,1,1,0.96596,42
1,0,0,1,1.388713,43
1,0,0,1,1.371295,44
1,0,0,1,1.208857,45
1,0,0,1,1.382584,46
1,1,0,0,1.822305,47
1,0,1,0,1.29768,48
1,1,1,1,0.988339,49
1,0,0,1,1.917397,50
1,0,0,1,0.991416,51
1,0,0,1,1.32012,52
1,0,0,1,1.209226,53
1,0,1,0,1.389266,54
1,0,1,0,1.087274,55
1,1,1,1,0.983195,56
1,1,1,1,0.99319,57
1,0,1,0,1.423864,58
1,0,1,0,1.092503,59
1,0,0,1,1.587721,60
1,0,0,1,1.471532,61
1,0,0,1,1.2989,62
1,1,1,1,1.294091,63
1,0,0,1,2.030822,64
1,1,1,1,1.61046,65
1,1,1,1,0.98685,66
1,1,1,1,0.968465,67
1,1,1,1,1.310095,68
1,0,0,1,NA,69
1,1,1,1,1.925335,70
1,0,0,1,1.616807,71
1,1,1,1,1.507163,72
1,1,1,1,1.418664,73
1,0,0,1,1.343037,74
1,1,1,1,1.578513,75
1,1,1,1,1.191453,76
1,1,1,1,0.980088,77
1,0,1,0,1.654354,78
1,0,1,0,1.073356,79
1,1,1,1,1.090528,80
1,1,1,1,0.979659,81
1,1,1,1,1.526137,82
1,0,0,1,1.709201,83
1,1,1,1,1.627936,84
1,1,1,1,1.095027,85
1,1,1,1,0.985998,86
1,1,1,1,1.077247,87
1,0,0,1,1.903993,88
1,0,1,0,NA,89
1,0,1,0,2.145702,90
1,1,1,1,0.984737,91
1,0,1,0,1.295325,92
1,1,1,1,0.9877,93
1,1,1,1,1.053108,94
1,0,0,1,1.402028,95
1,1,1,1,1.177204,96
1,1,1,1,1.093081,97
1,1,1,1,1.090412,98
1,1,1,1,0.976684,99
1,1,1,1,1.415349,100
1,1,1,1,1.211387,101
1,1,1,1,1.066317,102
1,1,1,1,1.077695,103
1,0,1,0,1.171301,104
1,0,1,0,1.197501,105
1,1,1,1,0.989183,106
1,1,1,1,1.090373,107
1,1,1,1,1.185926,108
1,1,1,1,1.209198,109
1,1,1,1,1.748544,110
1,0,1,0,1.318689,111
1,1,1,1,1.098591,112
2,1,1,1,2.01511,1
2,0,0,1,1.677781,2
2,1,1,1,1.28504,3
2,0,0,1,1.086478,4
2,0,0,1,1.185931,5
2,1,1,1,1.38716,6
2,1,0,0,1.735594,7
2,0,0,1,1.493961,8
2,0,0,1,1.087263,9
2,1,1,1,1.464004,10
2,1,1,1,1.503702,11
2,1,1,1,1.807159,12
2,1,1,1,1.575446,13
2,1,1,1,1.277018,14
2,0,0,1,1.15535,15
2,1,1,1,1.780525,16
2,0,0,1,1.161808,17
2,0,0,1,1.359034,18
2,0,0,1,1.376427,19
2,1,1,1,1.519869,20
2,0,0,1,1.049559,21
2,1,1,1,1.286232,22
2,1,1,1,1.264595,23
2,0,0,1,1.284653,24
2,0,0,1,1.890281,25
2,1,1,1,2.081787,26
2,1,1,1,1.702651,27
2,0,0,1,1.17743,28
2,1,1,1,1.717818,29
2,1,1,1,1.262312,30
2,1,1,1,1.589546,31
2,0,0,1,1.482771,32
2,0,0,1,1.471265,33
2,0,0,1,1.175943,34
2,1,0,0,1.656141,35
2,0,1,0,1.713791,36
2,1,1,1,1.476737,37
2,1,1,1,1.385997,38
2,1,1,1,1.377056,39
2,1,1,1,1.194884,40
2,1,1,1,1.256646,41
2,0,0,1,1.582575,42
2,0,0,1,1.187264,43
2,0,0,1,1.095081,44
2,0,0,1,1.086073,45
2,0,0,1,1.100135,46
2,0,1,0,1.611657,47
2,1,1,1,1.558754,48
2,1,1,1,1.275226,49
2,1,1,1,1.079899,50
2,0,0,1,1.296188,51
2,0,0,1,1.083759,52
2,0,0,1,1.093652,53
2,0,0,1,1.094317,54
2,0,0,1,1.209629,55
2,1,1,1,1.803967,56
2,0,0,1,1.352904,57
2,0,0,1,1.9223,58
2,0,0,1,1.181591,59
2,0,0,1,1.291759,60
2,1,1,1,1.706194,61
2,0,0,1,1.191187,62
2,1,1,1,1.389888,63
2,1,1,1,1.503704,64
2,0,0,1,1.396528,65
2,1,1,1,1.357295,66
2,1,1,1,1.525573,67
2,1,1,1,1.461214,68
2,1,1,1,1.55964,69
2,1,1,1,1.373654,70
2,0,0,1,1.38931,71
2,0,0,1,1.818704,72
2,0,0,1,1.093991,73
2,0,0,1,1.079347,74
2,1,1,1,1.505933,75
2,1,0,0,1.633639,76
2,1,1,1,1.286805,77
2,1,1,1,1.356995,78
2,0,0,1,1.484593,79
2,1,1,1,1.474415,80
2,0,1,0,1.686449,81
2,0,0,1,1.267644,82
2,0,0,1,1.313578,83
2,0,0,1,1.27863,84
2,1,1,1,1.605974,85
2,0,0,1,1.409573,86
2,0,0,1,1.41394,87
2,1,1,1,1.819836,88
2,1,0,0,1.264588,89
2,0,1,0,1.286645,90
2,0,0,1,1.592442,91
2,0,0,1,NA,92
2,0,0,1,1.27412,93
2,0,0,1,1.267127,94
2,1,1,1,1.304651,95
2,0,0,1,1.912741,96
2,1,1,1,1.67588,97
2,1,1,1,1.481983,98
2,0,0,1,1.362931,99
2,1,1,1,NA,100
2,0,0,1,1.30174,101
2,1,1,1,1.51295,102
2,0,0,1,1.364206,103
2,0,0,1,1.485527,104
2,1,1,1,2.030341,105
2,1,1,1,1.699163,106
2,1,1,1,1.726547,107
2,1,1,1,1.408909,108
2,1,1,1,1.40212,109
2,1,1,1,1.094779,110
2,0,0,1,1.593707,111
2,1,1,1,1.495404,112
3,0,0,1,1.098128,1
3,1,1,1,1.711528,2
3,1,1,1,2.016729,3
3,0,0,1,1.682867,4
3,0,0,1,1.488095,5
3,0,0,1,1.266554,6
3,1,1,1,1.587465,7
3,1,1,1,2.026004,8
3,1,1,1,2.002148,9
3,0,1,0,1.700275,10
3,1,1,1,1.628048,11
3,1,1,1,1.276166,12
3,0,0,1,1.57691,13
3,0,0,1,1.189291,14
3,0,0,1,1.526848,15
3,1,1,1,2.04016,16
3,1,1,1,1.283731,17
3,0,0,1,1.633239,18
3,1,1,1,NA,19
3,0,0,1,1.365061,20
3,1,1,1,1.397447,21
3,1,1,1,1.503834,22
3,0,0,1,1.902029,23
3,0,0,1,1.092014,24
3,0,0,1,0.984938,25
3,0,0,1,1.085766,26
3,1,1,1,2.150665,27
3,0,0,1,1.675605,28
3,1,1,1,1.398341,29
3,0,0,1,1.561259,30
3,1,1,1,1.72175,31
3,1,0,0,2.66452,32
3,0,1,0,1.63413,33
3,1,1,1,1.693022,34
3,1,1,1,NA,35
3,0,0,1,1.823951,36
3,0,0,1,1.098882,37
3,0,0,1,1.64057,38
3,1,0,0,2.025566,39
3,1,1,1,1.680227,40
3,1,1,1,NA,41
3,0,1,0,1.20399,42
3,1,1,1,1.09447,43
3,1,1,1,1.069,44
3,1,1,1,1.087859,45
3,0,1,0,1.545247,46
3,0,0,1,2.262393,47
3,1,1,1,1.685387,48
3,1,1,1,1.299364,49
3,0,0,1,2.582073,50
3,1,1,1,1.582006,51
3,1,1,1,1.098723,52
3,1,1,1,1.091417,53
3,1,1,1,0.978163,54
3,1,1,1,0.873828,55
3,0,1,0,0.98757,56
3,0,0,1,1.929566,57
3,0,0,1,1.17558,58
3,0,0,1,1.099204,59
3,1,1,1,1.500979,60
3,1,1,1,2.342251,61
3,1,1,1,1.406618,62
3,0,1,0,1.198026,63
3,1,1,1,1.202341,64
3,1,1,1,1.086499,65
3,0,0,1,1.817446,66
3,0,1,0,1.849219,67
3,0,1,0,1.612209,68
3,1,1,1,1.316852,69
3,0,1,0,1.089117,70
3,1,1,1,1.41357,71
3,1,1,1,1.202902,72
3,1,1,1,1.197924,73
3,0,1,0,1.302886,74
3,1,1,1,1.201968,75
3,1,1,1,1.207943,76
3,1,1,1,1.208383,77
3,1,1,1,1.42173,78
3,1,1,1,1.195847,79
3,0,1,0,1.087516,80
3,0,0,1,1.830911,81
3,0,0,1,1.422015,82
3,0,0,1,1.312335,83
3,0,0,1,1.402088,84
3,0,0,1,1.308954,85
3,0,0,1,1.65038,86
3,1,1,1,2.033451,87
3,0,0,1,2.019181,88
3,0,0,1,1.211632,89
3,1,0,0,1.313936,90
3,0,1,0,1.524848,91
3,1,1,1,1.214798,92
3,1,1,1,1.304723,93
3,1,1,1,1.209256,94
3,0,1,0,1.299789,95
3,1,1,1,1.092715,96
3,0,0,1,1.81979,97
3,0,0,1,1.689371,98
3,1,1,1,1.928281,99
3,1,1,1,1.083922,100
3,0,1,0,1.293699,101
3,0,0,1,1.911789,102
3,0,1,0,1.27653,103
3,0,1,0,1.209937,104
3,1,1,1,1.211155,105
3,0,0,1,1.914997,106
3,1,1,1,1.361366,107
3,0,0,1,2.129913,108
3,0,1,0,1.482766,109
3,0,1,0,1.170671,110
3,1,1,1,1.102487,111
3,0,1,0,1.198552,112
4,0,0,1,1.913575,1
4,1,1,1,1.398172,2
4,0,0,1,1.175074,3
4,0,0,1,1.255646,4
4,0,0,1,1.491591,5
4,0,0,1,0.877845,6
4,1,1,1,1.484193,7
4,0,0,1,0.963075,8
4,1,0,0,1.298961,9
4,1,1,1,2.262212,10
4,1,1,1,1.377514,11
4,0,0,1,NA,12
4,1,1,1,1.799727,13
4,1,1,1,NA,14
4,1,1,1,1.091773,15
4,0,0,1,1.188594,16
4,1,0,0,1.17369,17
4,1,1,1,1.384193,18
4,0,0,1,1.265625,19
4,0,1,0,1.169389,20
4,0,0,1,1.151524,21
4,0,1,0,1.362063,22
4,1,1,1,1.552469,23
4,0,0,1,1.088844,24
4,1,1,1,1.155484,25
4,1,1,1,1.348326,26
4,0,1,0,1.792444,27
4,1,1,1,1.683786,28
4,0,1,0,1.386205,29
4,1,1,1,1.188045,30
4,1,1,1,1.083176,31
4,1,1,1,1.187906,32
4,0,0,1,1.905118,33
4,1,1,1,1.375005,34
4,0,0,1,0.955732,35
4,0,0,1,1.993341,36
4,1,1,1,1.279994,37
4,0,1,0,1.483221,38
4,1,1,1,1.469424,39
4,0,1,0,1.39444,40
4,0,0,1,1.788409,41
4,1,1,1,1.153233,42
4,0,0,1,1.988597,43
4,1,1,1,1.370802,44
4,1,1,1,1.482099,45
4,1,1,1,1.36859,46
4,1,1,1,NA,47
4,0,0,1,1.383767,48
4,1,1,1,1.055348,49
4,1,1,1,NA,50
4,1,1,1,1.282475,51
4,1,1,1,1.318866,52
4,0,1,0,1.512736,53
4,1,1,1,0.98262,54
4,1,1,1,1.092472,55
4,1,1,1,1.090295,56
4,0,1,0,0.856669,57
4,0,1,0,1.204889,58
4,0,0,1,1.700818,59
4,0,0,1,1.370197,60
4,0,0,1,1.481824,61
4,0,0,1,1.158888,62
4,1,1,1,1.722152,63
4,0,0,1,1.781067,64
4,0,1,0,1.244253,65
4,0,1,0,1.813785,66
4,0,0,1,1.274279,67
4,0,0,1,1.702273,68
4,0,0,1,1.279059,69
4,1,1,1,1.397696,70
4,1,1,1,1.59141,71
4,1,1,1,1.192622,72
4,0,0,1,1.421605,73
4,1,1,1,1.064629,74
4,1,1,1,1.463345,75
4,1,1,1,1.38931,76
4,1,1,1,1.171274,77
4,0,0,1,1.486246,78
4,0,1,0,NA,79
4,1,1,1,1.488908,80
4,0,0,1,1.36529,81
4,1,1,1,1.075458,82
4,0,1,0,1.261762,83
4,1,1,1,1.29973,84
4,0,1,0,0.986184,85
4,0,0,1,1.394181,86
4,1,1,1,1.240135,87
4,1,1,1,1.781235,88
4,0,0,1,1.466441,89
4,1,1,1,1.0438,90
4,0,1,0,1.487889,91
4,1,1,1,1.282738,92
4,1,1,1,1.15054,93
4,0,0,1,1.80803,94
4,0,1,0,1.673835,95
4,0,0,1,2.220057,96
4,1,1,1,1.076871,97
4,0,0,1,1.609732,98
4,0,1,0,1.054996,99
4,1,1,1,1.269569,100
4,1,1,1,1.383892,101
4,0,1,0,1.36229,102
4,0,0,1,NA,103
4,1,1,1,1.600909,104
4,1,1,1,1.587184,105
4,0,1,0,1.395265,106
4,1,1,1,1.38585,107
4,0,1,0,1.15215,108
4,0,0,1,1.615221,109
4,0,1,0,1.053743,110
4,1,1,1,1.270855,111
4,1,1,1,1.380997,112
5,0,0,1,2.018962,1
5,0,0,1,1.081153,2
5,0,0,1,1.084401,3
5,1,1,1,2.160872,4
5,1,1,1,NA,5
5,1,1,1,1.202639,6
5,1,1,1,1.192733,7
5,1,1,1,NA,8
5,0,0,1,1.483954,9
5,1,1,1,1.598633,10
5,0,0,1,1.59365,11
5,0,0,1,1.784548,12
5,1,1,1,1.384371,13
5,1,1,1,2.89321,14
5,0,0,1,1.488187,15
5,1,0,0,1.087539,16
5,0,0,1,1.095507,17
5,0,0,1,1.091524,18
5,1,1,1,1.621917,19
5,1,0,0,1.772705,20
5,0,1,0,1.349386,21
5,0,0,1,2.028732,22
5,0,0,1,1.297032,23
5,1,1,1,1.516502,24
5,0,0,1,1.705697,25
5,0,0,1,1.269278,26
5,0,0,1,1.138867,27
5,0,0,1,1.383435,28
5,1,1,1,2.101689,29
5,1,1,1,1.280936,30
5,1,1,1,1.918325,31
5,0,0,1,1.490883,32
5,0,0,1,1.416971,33
5,0,0,1,1.316658,34
5,0,0,1,1.085784,35
5,1,1,1,2.48359,36
5,1,1,1,1.696594,37
5,0,0,1,1.922432,38
5,1,1,1,1.571333,39
5,1,1,1,1.27779,40
5,0,0,1,1.843317,41
5,1,1,1,2.310842,42
5,1,1,1,1.092136,43
5,1,1,1,1.310594,44
5,1,0,0,2.02003,45
5,1,1,1,1.364482,46
5,1,1,1,1.097459,47
5,1,0,0,2.582605,48
5,1,1,1,1.386421,49
5,0,0,1,1.929599,50
5,0,0,1,1.908548,51
5,1,1,1,1.259202,52
5,1,1,1,1.603639,53
5,0,0,1,1.687298,54
5,1,1,1,1.402326,55
5,0,1,0,1.637343,56
5,1,1,1,1.850424,57
5,1,1,1,1.201796,58
5,1,1,1,1.205627,59
5,1,1,1,1.510749,60
5,1,0,0,1.965077,61
5,0,0,1,NA,62
5,0,0,1,2.090299,63
5,0,0,1,1.591865,64
5,0,0,1,2.351904,65
5,1,1,1,2.241072,66
5,0,0,1,1.629878,67
5,1,1,1,1.593467,68
5,1,1,1,1.384473,69
5,0,1,0,1.197146,70
5,0,0,1,1.689309,71
5,0,0,1,2.213689,72
5,0,0,1,2.339695,73
5,1,1,1,2.219416,74
5,0,0,1,2.545202,75
5,1,1,1,1.275991,76
5,0,0,1,1.704901,77
5,1,1,1,1.573314,78
5,1,1,1,1.468056,79
5,1,1,1,2.398494,80
5,0,1,0,1.08939,81
5,1,1,1,1.700312,82
5,0,0,1,1.6246,83
5,0,0,1,1.808576,84
5,1,1,1,1.39109,85
5,1,1,1,1.310879,86
5,0,1,0,2.887542,87
5,1,1,1,1.743536,88
5,0,0,1,2.035998,89
5,0,0,1,1.198508,90
5,1,1,1,2.427579,91
5,0,1,0,1.755108,92
5,0,1,0,1.41989,93
5,0,0,1,2.163031,94
5,0,0,1,1.488788,95
5,0,1,0,1.708606,96
5,0,0,1,1.740077,97
5,0,0,1,1.398072,98
5,0,0,1,1.286545,99
5,0,0,1,1.087395,100
5,1,1,1,1.7139,101
5,0,0,1,1.618953,102
5,1,1,1,1.521733,103
5,1,1,1,1.096977,104
5,1,1,1,1.068213,105
5,0,0,1,1.604705,106
5,1,1,1,1.379633,107
5,1,1,1,1.19321,108
5,1,1,1,1.096868,109
5,0,0,1,1.711226,110
5,1,1,1,1.971307,111
5,0,1,0,1.937435,112
6,1,1,1,NA,1
6,1,0,0,2.658695,2
6,1,1,1,NA,3
6,1,1,1,1.199925,4
6,1,1,1,1.085224,5
6,0,0,1,1.401607,6
6,1,1,1,1.729959,7
6,0,1,0,0.986737,8
6,1,1,1,1.203317,9
6,1,1,1,1.847148,10
6,0,0,1,1.307951,11
6,1,1,1,2.08484,12
6,0,0,1,1.182162,13
6,1,1,1,NA,14
6,0,0,1,1.275408,15
6,0,0,1,0.989261,16
6,1,1,1,1.945172,17
6,1,1,1,NA,18
6,1,1,1,1.470805,19
6,0,0,1,1.484854,20
6,1,0,0,1.961912,21
6,1,0,0,1.211022,22
6,1,0,0,1.631897,23
6,0,0,1,0.98284,24
6,1,1,1,1.857377,25
6,1,1,1,1.304591,26
6,1,1,1,1.086651,27
6,1,1,1,1.199509,28
6,0,0,1,1.281754,29
6,0,0,1,2.68385,30
6,1,1,1,1.168836,31
6,0,0,1,1.159628,32
6,1,1,1,1.711008,33
6,1,0,0,1.584459,34
6,0,0,1,1.163843,35
6,1,0,0,0.974147,36
6,0,0,1,1.092608,37
6,1,1,1,1.736053,38
6,0,0,1,1.191833,39
6,1,1,1,1.606756,40
6,1,1,1,1.60681,41
6,1,1,1,1.103366,42
6,0,0,1,1.29252,43
6,1,1,1,1.4167,44
6,1,1,1,2.440751,45
6,1,0,0,1.631578,46
6,0,0,1,1.473426,47
6,0,0,1,0.98804,48
6,0,0,1,0.880946,49
6,0,0,1,0.876889,50
6,0,0,1,0.754122,51
6,1,0,0,1.517425,52
6,1,1,1,1.411063,53
6,0,0,1,1.301565,54
6,0,1,0,2.818991,55
6,0,0,1,1.283724,56
6,0,0,1,1.202654,57
6,0,0,1,0.987539,58
6,0,1,0,2.715754,59
6,0,0,1,1.17062,60
6,0,0,1,1.081798,61
6,1,1,1,1.735643,62
6,0,0,1,1.06788,63
6,1,1,1,1.616113,64
6,1,1,1,NA,65
6,1,1,1,1.076472,66
6,0,1,0,1.418386,67
6,0,0,1,1.405796,68
6,0,0,1,1.080647,69
6,0,0,1,1.627024,70
6,1,1,1,1.953699,71
6,1,1,1,1.498103,72
6,0,0,1,1.313209,73
6,0,0,1,0.979839,74
6,0,0,1,0.860954,75
6,1,0,0,0.875566,76
6,1,1,1,1.408695,77
6,1,1,1,1.207925,78
6,1,1,1,1.099747,79
6,0,0,1,1.613033,80
6,1,1,1,1.644538,81
6,0,0,1,1.811341,82
6,0,0,1,1.092908,83
6,0,1,0,1.43015,84
6,1,1,1,1.180387,85
6,1,1,1,1.314435,86
6,0,0,1,1.526325,87
6,0,0,1,1.407135,88
6,0,0,1,0.980177,89
6,0,0,1,0.98161,90
6,0,0,1,1.19606,91
6,0,0,1,0.990063,92
6,0,0,1,0.982798,93
6,0,0,1,1.317106,94
6,1,1,1,1.605217,95
6,1,1,1,1.104328,96
6,0,0,1,1.608495,97
6,1,1,1,1.81223,98
6,1,1,1,0.964873,99
6,1,0,0,1.504625,100
6,0,0,1,1.617072,101
6,0,0,1,1.4708,102
6,0,1,0,2.370818,103
6,1,1,1,1.199048,104
6,0,1,0,0.959922,105
6,1,1,1,1.533046,106
6,1,1,1,NA,107
6,0,0,1,1.50318,108
6,1,0,0,1.422088,109
6,1,1,1,1.618351,110
6,0,0,1,1.3933,111
6,0,0,1,1.079411,112
7,0,0,1,2.258773,1
7,0,0,1,1.104316,2
7,1,1,1,1.701722,3
7,1,1,1,2.836963,4
7,0,0,1,1.500772,5
7,0,0,1,1.177392,6
7,0,0,1,1.094507,7
7,1,1,1,1.688963,8
7,0,0,1,1.582294,9
7,1,1,1,1.705358,10
7,0,0,1,1.155459,11
7,0,0,1,1.786816,12
7,0,0,1,1.206808,13
7,0,0,1,1.279998,14
7,1,1,1,1.58988,15
7,1,1,1,2.000194,16
7,0,1,0,2.005812,17
7,0,0,1,1.252853,18
7,1,1,1,1.487471,19
7,0,0,1,1.602734,20
7,1,1,1,1.614279,21
7,0,0,1,1.787754,22
7,1,1,1,1.382787,23
7,1,1,1,1.46345,24
7,1,1,1,1.494829,25
7,0,0,1,2.227246,26
7,0,0,1,1.095795,27
7,0,0,1,0.869969,28
7,1,1,1,1.818762,29
7,0,0,1,1.384139,30
7,0,0,1,1.58623,31
7,0,0,1,1.053466,32
7,0,0,1,1.087866,33
7,0,0,1,1.103067,34
7,1,1,1,1.504618,35
7,0,0,1,2.881002,36
7,1,1,1,1.487903,37
7,1,1,1,1.324931,38
7,1,1,1,2.125757,39
7,0,0,1,1.636872,40
7,0,0,1,0.998752,41
7,0,0,1,0.98418,42
7,0,0,1,0.993072,43
7,1,1,1,1.628048,44
7,0,0,1,1.604014,45
7,1,1,1,1.350733,46
7,1,1,1,1.812249,47
7,0,0,1,1.360957,48
7,0,0,1,1.593676,49
7,1,1,1,1.616413,50
7,1,1,1,2.0156520000000002,51
7,1,1,1,1.201543,52
7,1,1,1,1.065789,53
7,1,1,1,1.090552,54
7,1,1,1,NA,55
7,1,1,1,1.816074,56
7,1,1,1,1.094316,57
7,0,0,1,1.390635,58
7,1,1,1,1.696408,59
7,0,0,1,1.626705,60
7,0,0,1,NA,61
7,0,0,1,1.378433,62
7,0,0,1,1.491193,63
7,1,1,1,1.59856,64
7,1,1,1,1.485622,65
7,1,1,1,1.477927,66
7,1,1,1,1.066507,67
7,1,1,1,1.274453,68
7,1,1,1,1.21038,69
7,1,0,0,2.173833,70
7,1,1,1,1.389843,71
7,1,1,1,1.476865,72
7,0,0,1,1.666494,73
7,1,1,1,1.401482,74
7,1,1,1,1.392689,75
7,0,0,1,1.60739,76
7,0,0,1,1.090335,77
7,0,0,1,0.974631,78
7,0,0,1,1.098026,79
7,0,0,1,1.086587,80
7,0,0,1,1.201919,81
7,0,1,0,2.358916,82
7,0,0,1,2.109025,83
7,1,1,1,1.506336,84
7,1,1,1,1.774493,85
7,1,0,0,2.55949,86
7,1,1,1,NA,87
7,0,0,1,1.713579,88
7,1,1,1,1.715833,89
7,1,1,1,1.78433,90
7,1,1,1,1.419651,91
7,0,0,1,1.501679,92
7,0,0,1,2.4801,93
7,1,1,1,1.820017,94
7,0,0,1,1.73022,95
7,1,1,1,2.049535,96
7,1,1,1,1.509512,97
7,0,0,1,1.730503,98
7,1,1,1,1.258022,99
7,1,1,1,1.613801,100
7,1,1,1,1.267208,101
7,0,1,0,1.611055,102
7,0,0,1,1.811882,103
7,1,1,1,NA,104
7,0,0,1,1.257154,105
7,0,0,1,1.100435,106
7,0,1,0,1.932824,107
7,0,0,1,1.60109,108
7,1,1,1,NA,109
7,0,0,1,1.796632,110
7,1,1,1,1.700351,111
7,1,1,1,2.115929,112
8,1,0,0,1.591607,1
8,0,1,0,1.705797,2
8,0,1,0,1.436079,3
8,0,0,1,1.169997,4
8,0,0,1,0.969344,5
8,1,1,1,1.82961,6
8,1,0,0,1.796017,7
8,0,0,1,0.99259,8
8,1,1,1,1.822452,9
8,1,1,1,1.167077,10
8,0,0,1,1.295156,11
8,1,1,1,1.399649,12
8,0,0,1,0.940431,13
8,0,0,1,1.267924,14
8,1,1,1,1.670566,15
8,0,0,1,1.041642,16
8,1,0,0,1.713572,17
8,0,1,0,0.961334,18
8,0,0,1,0.850296,19
8,1,1,1,0.642254,20
8,0,0,1,1.657111,21
8,0,0,1,0.760086,22
8,0,0,1,0.646783,23
8,1,0,0,0.656115,24
8,1,1,1,1.506636,25
8,0,1,0,1.475872,26
8,1,0,0,0.855728,27
8,1,0,0,0.858987,28
8,0,1,0,1.198213,29
8,1,1,1,1.090846,30
8,1,1,1,0.880508,31
8,0,0,1,2.712165,32
8,1,1,1,1.286507,33
8,0,0,1,1.05691,34
8,0,0,1,1.168078,35
8,0,1,0,2.352362,36
8,1,1,1,0.537477,37
8,0,0,1,1.697195,38
8,1,1,1,1.592901,39
8,1,0,0,1.265677,40
8,1,0,0,0.985214,41
8,0,0,1,1.57579,42
8,0,0,1,NA,43
8,0,0,1,NA,44
8,1,1,1,0.209385,45
8,1,1,1,NA,46
8,1,1,1,NA,47
8,1,1,1,2.452641,48
8,0,1,0,1.760658,49
8,0,1,0,1.814877,50
8,1,1,1,0.973858,51
8,0,0,1,1.286103,52
8,1,1,1,1.196633,53
8,1,1,1,0.989797,54
8,0,0,1,1.389984,55
8,0,0,1,0.968505,56
8,1,1,1,1.27628,57
8,1,1,1,1.298212,58
8,0,0,1,2.11262,59
8,0,1,0,1.493948,60
8,1,0,0,1.699247,61
8,1,1,1,1.484707,62
8,1,1,1,1.19071,63
8,1,1,1,0.766231,64
8,0,1,0,0.333302,65
8,0,1,0,NA,66
8,0,1,0,NA,67
8,0,0,1,0.63639,68
8,1,0,0,NA,69
8,0,0,1,NA,70
8,1,0,0,NA,71
8,0,1,0,0.313275,72
8,1,0,0,1.61076,73
8,1,1,1,1.076207,74
8,1,0,0,1.183563,75
8,0,1,0,1.750012,76
8,1,1,1,1.376358,77
8,1,1,1,0.967974,78
8,0,0,1,1.304442,79
8,0,0,1,1.369391,80
8,0,1,0,1.910301,81
8,1,1,1,1.575992,82
8,1,0,0,1.142253,83
8,1,1,1,0.740602,84
8,1,0,0,0.740904,85
8,1,1,1,0.440339,86
8,1,0,0,0.631407,87
8,0,0,1,1.289056,88
8,0,0,1,NA,89
8,1,0,0,NA,90
8,0,1,0,0.426688,91
8,0,1,0,1.796053,92
8,0,0,1,4.918046,93
8,0,0,1,1.99349,94
8,0,0,1,0.323478,95
8,1,0,0,0.420115,96
8,1,0,0,NA,97
8,0,0,1,NA,98
8,1,1,1,0.32135,99
8,1,1,1,NA,100
8,0,1,0,NA,101
8,1,0,0,NA,102
8,1,1,1,1.568313,103
8,1,1,1,1.358272,104
8,0,0,1,0.769532,105
8,0,0,1,NA,106
8,0,1,0,0.427629,107
8,0,1,0,1.171959,108
8,1,1,1,1.099961,109
8,1,1,1,1.195877,110
8,0,1,0,1.188569,111
8,0,1,0,0.65217,112
9,1,1,1,2.259579,1
9,0,0,1,1.603792,2
9,1,1,1,1.392757,3
9,1,1,1,1.260757,4
9,0,0,1,1.401478,5
9,1,1,1,1.395509,6
9,1,1,1,1.411129,7
9,1,1,1,1.282273,8
9,1,1,1,1.096096,9
9,0,0,1,1.385196,10
9,1,1,1,1.487256,11
9,1,1,1,0.987186,12
9,1,1,1,1.29818,13
9,1,1,1,1.081832,14
9,1,1,1,1.317074,15
9,0,0,1,1.49521,16
9,1,1,1,1.291129,17
9,1,1,1,1.058846,18
9,1,1,1,1.524897,19
9,1,1,1,1.091912,20
9,0,0,1,NA,21
9,1,1,1,1.285138,22
9,0,0,1,1.496616,23
9,0,0,1,1.514252,24
9,0,0,1,1.091081,25
9,1,1,1,1.502563,26
9,0,0,1,NA,27
9,0,0,1,1.495184,28
9,0,0,1,1.303843,29
9,0,1,0,NA,30
9,1,1,1,1.729936,31
9,0,0,1,1.518537,32
9,0,0,1,2.04985,33
9,1,1,1,1.501929,34
9,0,1,0,1.75923,35
9,0,0,1,1.7205,36
9,0,0,1,1.417274,37
9,0,0,1,2.16176,38
9,0,0,1,1.516043,39
9,1,1,1,1.618365,40
9,0,0,1,1.716131,41
9,0,0,1,1.627913,42
9,1,1,1,1.506169,43
9,1,1,1,1.279541,44
9,0,0,1,1.835784,45
9,0,0,1,1.517323,46
9,1,1,1,1.282497,47
9,1,1,1,1.40258,48
9,1,1,1,1.216681,49
9,1,1,1,1.201664,50
9,1,1,1,1.305377,51
9,0,0,1,1.608764,52
9,0,0,1,1.722226,53
9,1,1,1,1.305976,54
9,1,1,1,1.203591,55
9,1,1,1,1.5016370000000001,56
9,1,1,1,1.207821,57
9,1,1,1,1.184321,58
9,0,0,1,1.738689,59
9,0,0,1,1.311479,60
9,0,0,1,1.27758,61
9,0,0,1,1.291064,62
9,0,0,1,1.520863,63
9,1,1,1,1.493634,64
9,1,1,1,1.306257,65
9,0,0,1,NA,66
9,0,0,1,2.258727,67
9,1,0,0,NA,68
9,0,0,1,1.511007,69
9,0,0,1,1.397678,70
9,1,1,1,NA,71
9,1,1,1,1.295159,72
9,1,1,1,1.179271,73
9,1,1,1,1.202992,74
9,0,0,1,1.847194,75
9,1,1,1,1.409583,76
9,0,0,1,1.503943,77
9,0,0,1,1.536407,78
9,1,1,1,1.419114,79
9,1,1,1,1.312076,80
9,1,1,1,1.184637,81
9,1,1,1,1.306491,82
9,0,0,1,NA,83
9,0,0,1,NA,84
9,1,1,1,1.190134,85
9,0,0,1,1.623649,86
9,1,1,1,1.303987,87
9,0,0,1,1.69437,88
9,1,1,1,1.611455,89
9,1,1,1,1.289907,90
9,1,1,1,1.173477,91
9,0,0,1,1.623667,92
9,0,0,1,1.309137,93
9,0,0,1,1.209231,94
9,1,1,1,1.50135,95
9,0,1,0,NA,96
9,0,0,1,1.739264,97
9,0,0,1,1.748185,98
9,0,0,1,1.425362,99
9,0,0,1,1.648858,100
9,0,0,1,2.230793,101
9,0,0,1,1.637053,102
9,0,0,1,NA,103
9,0,0,1,1.735804,104
9,1,1,1,1.510367,105
9,1,1,1,1.211373,106
9,1,1,1,1.304629,107
9,0,1,0,NA,108
9,0,0,1,1.599248,109
9,1,1,1,1.616749,110
9,1,1,1,1.278333,111
9,0,0,1,2.289398,112
10,1,0,0,NA,1
10,0,0,1,1.304946,2
10,1,1,1,1.517784,3
10,0,1,0,1.417477,4
10,0,0,1,1.486423,5
10,0,1,0,1.404215,6
10,0,0,1,1.609305,7
10,1,0,0,2.232467,8
10,0,0,1,1.202815,9
10,1,1,1,1.393741,10
10,1,1,1,1.309259,11
10,1,1,1,1.177762,12
10,0,1,0,1.586713,13
10,0,0,1,1.715296,14
10,1,1,1,1.922268,15
10,0,0,1,1.386246,16
10,0,0,1,0.987453,17
10,0,0,1,0.878904,18
10,1,1,1,1.616769,19
10,0,0,1,1.375452,20
10,1,1,1,1.725583,21
10,1,1,1,1.362892,22
10,1,1,1,1.305197,23
10,0,0,1,1.412267,24
10,1,0,0,1.207494,25
10,0,0,1,1.083795,26
10,1,0,0,1.103166,27
10,1,1,1,1.406618,28
10,1,1,1,1.573579,29
10,0,0,1,1.168538,30
10,1,1,1,1.500412,31
10,0,0,1,1.391878,32
10,1,0,0,1.405341,33
10,1,1,1,1.512604,34
10,1,1,1,1.499553,35
10,0,0,1,1.388051,36
10,0,0,1,1.067586,37
10,1,1,1,1.489681,38
10,0,0,1,1.379363,39
10,0,0,1,1.193075,40
10,0,0,1,0.97653,41
10,1,0,0,1.210036,42
10,1,1,1,1.47839,43
10,0,0,1,1.547781,44
10,0,0,1,1.068044,45
10,0,0,1,1.712121,46
10,1,0,0,0.980495,47
10,0,1,0,1.184081,48
10,1,1,1,2.25528,49
10,0,1,0,1.182943,50
10,0,1,0,1.566074,51
10,0,1,0,1.07027,52
10,0,0,1,1.490075,53
10,1,0,0,1.811745,54
10,1,1,1,1.687959,55
10,0,0,1,1.371517,56
10,1,1,1,1.727826,57
10,1,1,1,1.823246,58
10,1,1,1,2.118445,59
10,0,0,1,1.383239,60
10,1,1,1,1.407233,61
10,0,0,1,1.384348,62
10,0,0,1,1.091469,63
10,1,1,1,1.602302,64
10,1,1,1,1.815887,65
10,0,0,1,1.494417,66
10,1,1,1,1.708157,67
10,1,1,1,1.172138,68
10,0,0,1,1.380698,69
10,1,0,0,1.091413,70
10,0,0,1,1.816841,71
10,1,1,1,1.512063,72
10,0,1,0,1.493269,73
10,0,0,1,1.372417,74
10,1,0,0,0.99125,75
10,0,0,1,0.992263,76
10,1,1,1,1.51046,77
10,1,1,1,1.090312,78
10,1,1,1,1.103622,79
10,0,1,0,1.87505,80
10,1,1,1,1.086513,81
10,0,1,0,NA,82
10,0,0,1,1.391714,83
10,1,0,0,1.311145,84
10,1,1,1,1.803393,85
10,1,1,1,1.400976,86
10,0,1,0,1.19976,87
10,1,1,1,1.080361,88
10,0,1,0,1.398489,89
10,1,1,1,1.077968,90
10,1,1,1,1.10231,91
10,0,1,0,0.980549,92
10,1,1,1,0.988639,93
10,1,1,1,1.088112,94
10,0,0,1,1.493719,95
10,0,1,0,1.713507,96
10,0,1,0,1.790348,97
10,0,0,1,1.492905,98
10,0,1,0,1.851634,99
10,0,1,0,1.617105,100
10,1,1,1,1.313437,101
10,1,1,1,1.489199,102
10,1,1,1,1.527851,103
10,0,0,1,1.610847,104
10,1,1,1,1.48368,105
10,0,0,1,1.517237,106
10,1,1,1,1.598086,107
10,0,0,1,1.939498,108
10,1,1,1,1.388407,109
10,0,0,1,2.290843,110
10,1,1,1,1.823699,111
10,0,0,1,1.810922,112
11,1,0,0,1.485188,1
11,0,0,1,0.989619,2
11,1,1,1,1.619098,3
11,0,0,1,1.46334,4
11,0,0,1,1.070242,5
11,1,0,0,1.542664,6
11,0,1,0,1.365698,7
11,1,1,1,0.541086,8
11,1,1,1,1.078999,9
11,0,0,1,1.803255,10
11,1,1,1,1.369636,11
11,0,1,0,1.697957,12
11,0,0,1,2.149426,13
11,1,1,1,1.163432,14
11,0,0,1,1.590328,15
11,1,1,1,1.045795,16
11,1,1,1,1.165058,17
11,1,1,1,NA,18
11,1,0,0,1.483259,19
11,1,1,1,1.366376,20
11,1,1,1,1.809907,21
11,1,1,1,1.366221,22
11,0,1,0,1.085822,23
11,1,1,1,1.401296,24
11,0,0,1,1.24229,25
11,0,0,1,1.47898,26
11,0,0,1,1.54197,27
11,0,1,0,3.118353,28
11,0,1,0,1.250048,29
11,0,0,1,2.306543,30
11,1,1,1,2.968303,31
11,1,1,1,1.171786,32
11,1,1,1,0.982326,33
11,0,0,1,1.693874,34
11,1,0,0,1.757974,35
11,1,1,1,1.510238,36
11,1,1,1,1.800257,37
11,0,1,0,NA,38
11,0,1,0,0.994977,39
11,0,1,0,1.311588,40
11,0,1,0,1.308778,41
11,1,1,1,2.095498,42
11,0,1,0,2.323544,43
11,0,1,0,2.248619,44
11,1,1,1,1.271446,45
11,1,1,1,1.19477,46
11,0,0,1,2.335975,47
11,0,1,0,2.747241,48
11,0,1,0,3.532333,49
11,0,0,1,1.260199,50
11,1,0,0,1.075637,51
11,1,1,1,1.746296,52
11,1,1,1,1.094055,53
11,0,0,1,1.28039,54
11,0,0,1,1.193796,55
11,0,0,1,2.841987,56
11,1,0,0,NA,57
11,1,0,0,NA,58
11,1,0,0,0.548901,59
11,0,1,0,0.945418,60
11,0,0,1,1.664497,61
11,0,0,1,NA,62
11,0,0,1,0.644345,63
11,0,1,0,0.865364,64
11,0,1,0,0.771127,65
11,0,0,1,0.879112,66
11,1,1,1,0.753114,67
11,0,0,1,2.103467,68
11,1,1,1,1.273495,69
11,0,0,1,1.617318,70
11,1,1,1,1.188013,71
11,1,0,0,1.9956,72
11,0,0,1,2.026601,73
11,1,1,1,1.59336,74
11,1,1,1,1.690819,75
11,0,1,0,1.091449,76
11,1,1,1,2.385658,77
11,0,0,1,1.517195,78
11,0,0,1,1.486576,79
11,1,1,1,0.972416,80
11,0,1,0,1.997148,81
11,1,0,0,1.597365,82
11,1,1,1,1.394429,83
11,0,1,0,1.065239,84
11,0,1,0,0.980816,85
11,1,1,1,1.302373,86
11,1,1,1,1.108218,87
11,0,0,1,1.591516,88
11,1,1,1,1.260011,89
11,0,1,0,1.181283,90
11,1,1,1,2.573656,91
11,1,1,1,NA,92
11,1,1,1,NA,93
11,0,1,0,NA,94
11,1,1,1,NA,95
11,0,1,0,NA,96
11,0,1,0,NA,97
11,0,1,0,NA,98
11,1,1,1,NA,99
11,1,1,1,NA,100
11,1,0,0,1.28414,101
11,1,0,0,2.250295,102
11,0,0,1,1.371962,103
11,1,1,1,0.974528,104
11,0,0,1,1.714684,105
11,1,1,1,1.183288,106
11,0,0,1,1.781771,107
11,0,0,1,2.237141,108
11,0,0,1,1.073714,109
11,1,1,1,1.286343,110
11,1,1,1,1.172038,111
11,1,1,1,1.084444,112
12,0,0,1,1.369292,1
12,1,1,1,1.49041,2
12,1,0,0,1.780641,3
12,1,1,1,1.303105,4
12,1,0,0,1.586144,5
12,0,0,1,1.178886,6
12,1,1,1,1.376659,7
12,0,0,1,1.181866,8
12,1,1,1,1.273202,9
12,0,0,1,1.166519,10
12,1,0,0,1.202317,11
12,1,1,1,1.394447,12
12,1,0,0,1.896265,13
12,0,0,1,1.294879,14
12,0,0,1,1.074727,15
12,0,0,1,1.27141,16
12,1,1,1,1.291782,17
12,1,1,1,1.402355,18
12,1,0,0,1.594677,19
12,0,0,1,1.384589,20
12,1,0,0,1.692773,21
12,0,0,1,1.411614,22
12,0,0,1,1.189865,23
12,0,0,1,1.176408,24
12,1,1,1,1.721207,25
12,0,1,0,1.589031,26
12,0,0,1,1.299332,27
12,1,0,0,1.410905,28
12,1,1,1,1.288151,29
12,0,0,1,1.386702,30
12,0,0,1,1.503295,31
12,1,1,1,NA,32
12,1,1,1,1.738933,33
12,1,1,1,1.593932,34
12,1,1,1,1.421627,35
12,0,0,1,1.298624,36
12,1,1,1,1.622408,37
12,0,0,1,1.399913,38
12,1,1,1,1.746195,39
12,1,1,1,1.516979,40
12,0,0,1,1.817111,41
12,1,0,0,1.281519,42
12,1,1,1,1.479922,43
12,0,0,1,1.401153,44
12,0,0,1,1.277947,45
12,1,1,1,1.507505,46
12,0,0,1,1.289613,47
12,0,0,1,1.62985,48
12,1,1,1,1.39958,49
12,0,0,1,1.270791,50
12,0,0,1,1.184085,51
12,0,0,1,1.2003,52
12,0,0,1,1.415986,53
12,0,0,1,1.306773,54
12,1,1,1,1.270686,55
12,1,0,0,1.592507,56
12,1,1,1,1.527457,57
12,0,0,1,1.396711,58
12,1,0,0,1.520509,59
12,1,1,1,1.390453,60
12,0,0,1,1.277503,61
12,0,0,1,1.580235,62
12,1,1,1,1.510598,63
12,0,0,1,1.257703,64
12,0,0,1,1.095895,65
12,0,1,0,1.382198,66
12,0,0,1,1.511436,67
12,1,1,1,1.475305,68
12,0,0,1,1.26821,69
12,1,1,1,1.578435,70
12,0,0,1,1.357794,71
12,0,1,0,1.745723,72
12,0,0,1,1.408936,73
12,1,1,1,1.390096,74
12,1,1,1,1.096887,75
12,1,1,1,1.096499,76
12,1,1,1,1.103334,77
12,1,1,1,1.098689,78
12,0,0,1,1.474975,79
12,0,1,0,1.504362,80
12,1,1,1,1.177841,81
12,1,0,0,1.597503,82
12,1,1,1,1.36275,83
12,1,1,1,1.092204,84
12,1,1,1,1.089366,85
12,0,0,1,1.39878,86
12,0,0,1,1.37837,87
12,1,1,1,1.397161,88
12,0,0,1,1.296244,89
12,0,0,1,1.063667,90
12,1,1,1,1.364885,91
12,0,0,1,1.504951,92
12,0,0,1,1.284041,93
12,0,0,1,1.4049,94
12,0,0,1,1.193921,95
12,1,0,0,1.194019,96
12,1,1,1,1.629242,97
12,0,0,1,1.39432,98
12,1,1,1,1.274412,99
12,0,1,0,1.589523,100
12,1,1,1,1.821651,101
12,0,0,1,NA,102
12,0,0,1,1.765619,103
12,0,0,1,1.398458,104
12,0,0,1,1.399397,105
12,1,1,1,1.415329,106
12,1,1,1,1.375796,107
12,1,1,1,1.199834,108
12,1,1,1,1.31021,109
12,1,1,1,1.199443,110
12,0,1,0,1.425124,111
12,0,0,1,1.512635,112
13,0,0,1,2.650071,1
13,0,0,1,1.526677,2
13,1,1,1,2.048557,3
13,1,1,1,1.682093,4
13,0,0,1,1.481708,5
13,0,0,1,1.321447,6
13,0,0,1,1.596387,7
13,1,1,1,1.505426,8
13,0,0,1,1.466764,9
13,0,0,1,1.178924,10
13,0,0,1,1.666561,11
13,0,0,1,1.280222,12
13,1,1,1,1.742068,13
13,0,0,1,1.49167,14
13,1,1,1,1.497165,15
13,0,0,1,2.352338,16
13,1,1,1,1.387178,17
13,0,0,1,1.271408,18
13,1,1,1,1.723793,19
13,1,0,0,3.87581,20
13,1,1,1,1.398441,21
13,0,0,1,2.225118,22
13,0,1,0,3.244977,23
13,0,0,1,1.705036,24
13,0,1,0,2.134855,25
13,0,0,1,1.586355,26
13,1,1,1,3.309386,27
13,1,1,1,2.780321,28
13,1,1,1,1.412896,29
13,0,0,1,NA,30
13,1,1,1,1.8026199999999999,31
13,1,0,0,3.440816,32
13,0,0,1,1.528938,33
13,1,1,1,1.620575,34
13,1,1,1,1.385615,35
13,1,1,1,1.963543,36
13,0,0,1,1.918601,37
13,1,1,1,1.776332,38
13,1,1,1,1.839947,39
13,1,1,1,1.309538,40
13,1,1,1,1.753648,41
13,0,0,1,1.513469,42
13,0,0,1,1.366273,43
13,0,1,0,3.145996,44
13,0,0,1,1.611271,45
13,1,1,1,3.015702,46
13,1,1,1,1.981375,47
13,0,0,1,2.261068,48
13,0,0,1,1.931752,49
13,1,1,1,2.184605,50
13,0,0,1,1.692273,51
13,1,1,1,2.223551,52
13,0,0,1,2.43086,53
13,1,1,1,1.571277,54
13,0,0,1,2.912145,55
13,1,1,1,2.386344,56
13,0,0,1,1.365308,57
13,1,1,1,1.594377,58
13,0,0,1,1.506604,59
13,1,1,1,1.465969,60
13,1,1,1,2.222774,61
13,0,0,1,1.500353,62
13,0,0,1,3.422052,63
13,0,0,1,2.375186,64
13,0,0,1,2.737202,65
13,0,0,1,1.289149,66
13,0,0,1,2.966425,67
13,1,1,1,1.704864,68
13,1,1,1,3.82109,69
13,1,1,1,1.37509,70
13,0,0,1,1.742618,71
13,0,0,1,1.195448,72
13,0,0,1,1.412494,73
13,0,0,1,1.290729,74
13,1,1,1,2.151604,75
13,0,0,1,1.362977,76
13,1,1,1,1.698859,77
13,1,1,1,1.919058,78
13,0,0,1,1.355348,79
13,1,1,1,1.596607,80
13,0,0,1,1.682616,81
13,1,1,1,1.507796,82
13,0,0,1,1.663303,83
13,0,0,1,1.283499,84
13,1,1,1,1.607246,85
13,1,1,1,1.504346,86
13,0,0,1,1.504204,87
13,1,1,1,1.478336,88
13,0,0,1,2.117347,89
13,1,1,1,1.17394,90
13,1,1,1,2.001618,91
13,1,1,1,1.326078,92
13,1,1,1,1.4233,93
13,0,0,1,1.843575,94
13,1,1,1,1.405997,95
13,0,0,1,3.424055,96
13,0,1,0,1.918602,97
13,1,1,1,1.306208,98
13,0,0,1,1.624321,99
13,1,1,1,2.23682,100
13,1,1,1,2.58826,101
13,1,1,1,1.535547,102
13,1,1,1,2.332022,103
13,1,1,1,1.54005,104
13,1,1,1,1.757849,105
13,1,1,1,3.284397,106
13,0,0,1,1.597777,107
13,0,0,1,1.208758,108
13,1,1,1,1.397646,109
13,0,0,1,1.6123,110
13,0,0,1,1.710972,111
13,1,1,1,1.401269,112
14,0,0,1,1.293378,1
14,0,0,1,1.249089,2
14,0,1,0,3.356909,3
14,0,0,1,1.259906,4
14,1,1,1,2.573323,5
14,1,1,1,1.283191,6
14,0,0,1,1.818225,7
14,0,0,1,1.49586,8
14,0,1,0,1.602568,9
14,1,1,1,1.60355,10
14,1,1,1,1.067331,11
14,1,1,1,0.973923,12
14,1,1,1,1.208084,13
14,1,1,1,1.303275,14
14,0,0,1,2.375018,15
14,0,1,0,1.803246,16
14,0,1,0,1.324031,17
14,1,1,1,1.691692,18
14,1,1,1,1.275992,19
14,0,0,1,1.476551,20
14,0,0,1,1.79104,21
14,1,1,1,1.372203,22
14,0,0,1,2.013219,23
14,1,1,1,1.621721,24
14,1,1,1,1.169879,25
14,1,1,1,2.577201,26
14,1,1,1,1.317006,27
14,1,1,1,3.181973,28
14,0,1,0,2.626854,29
14,0,0,1,1.723725,30
14,1,1,1,1.920873,31
14,0,0,1,1.89334,32
14,0,1,0,1.357809,33
14,1,1,1,1.310958,34
14,0,0,1,1.710912,35
14,0,0,1,1.423093,36
14,1,1,1,1.833365,37
14,0,0,1,1.493675,38
14,1,1,1,2.462981,39
14,1,1,1,1.275724,40
14,0,0,1,1.605768,41
14,1,1,1,1.40191,42
14,0,0,1,1.716504,43
14,0,0,1,1.858128,44
14,0,0,1,1.312845,45
14,1,1,1,2.463223,46
14,1,1,1,2.066184,47
14,1,1,1,1.491939,48
14,0,0,1,1.838543,49
14,1,1,1,1.397698,50
14,1,1,1,1.378735,51
14,0,1,0,NA,52
14,1,1,1,1.528013,53
14,0,1,0,1.202479,54
14,1,1,1,1.30517,55
14,1,1,1,1.521731,56
14,1,1,1,1.091073,57
14,0,0,1,2.481287,58
14,1,1,1,1.51313,59
14,1,1,1,1.313554,60
14,1,1,1,1.737224,61
14,0,1,0,1.284725,62
14,1,1,1,2.078354,63
14,1,1,1,1.192886,64
14,1,1,1,1.199912,65
14,1,1,1,1.525732,66
14,0,0,1,1.939206,67
14,1,1,1,1.300277,68
14,0,0,1,1.616314,69
14,0,0,1,1.913563,70
14,0,0,1,1.639216,71
14,0,0,1,NA,72
14,0,0,1,2.6931060000000002,73
14,0,0,1,2.045068,74
14,0,1,0,1.396121,75
14,1,1,1,1.082457,76
14,1,1,1,1.093703,77
14,0,1,0,1.53498,78
14,1,1,1,1.091192,79
14,0,0,1,2.005625,80
14,0,0,1,2.086102,81
14,0,1,0,2.496004,82
14,1,1,1,NA,83
14,0,0,1,2.596495,84
14,0,1,0,1.838363,85
14,0,1,0,1.182046,86
14,0,0,1,1.728308,87
14,1,1,1,1.627533,88
14,1,1,1,1.531263,89
14,1,1,1,1.530647,90
14,0,1,0,1.539037,91
14,0,0,1,NA,92
14,0,0,1,1.924792,93
14,0,0,1,1.318431,94
14,1,1,1,NA,95
14,1,1,1,1.296703,96
14,1,0,0,2.259182,97
14,1,1,1,1.37326,98
14,0,1,0,1.64237,99
14,1,1,1,1.422988,100
14,1,0,0,2.917669,101
14,0,1,0,1.581245,102
14,1,1,1,1.411061,103
14,0,1,0,2.50269,104
14,1,1,1,1.413971,105
14,1,1,1,1.316665,106
14,0,1,0,1.84951,107
14,1,1,1,1.636236,108
14,0,1,0,1.202225,109
14,1,1,1,2.175042,110
14,0,1,0,1.414772,111
14,0,1,0,1.30275,112
15,1,1,1,NA,1
15,1,1,1,1.540327,2
15,0,0,1,1.491712,3
15,1,1,1,1.393783,4
15,1,1,1,1.405724,5
15,1,1,1,1.945979,6
15,1,1,1,1.304645,7
15,0,0,1,NA,8
15,0,0,1,0.986092,9
15,0,0,1,0.983092,10
15,1,1,1,2.262834,11
15,1,1,1,1.863064,12
15,0,0,1,1.925076,13
15,0,0,1,1.178549,14
15,0,0,1,0.985057,15
15,0,0,1,0.87532,16
15,0,0,1,0.872525,17
15,0,0,1,1.203198,18
15,1,1,1,1.389853,19
15,0,0,1,1.380808,20
15,1,1,1,NA,21
15,1,1,1,1.08135,22
15,0,0,1,1.390746,23
15,0,0,1,0.980774,24
15,1,1,1,2.397963,25
15,1,1,1,1.634765,26
15,1,1,1,0.972525,27
15,1,1,1,1.098316,28
15,1,1,1,1.314167,29
15,1,1,1,2.788944,30
15,0,0,1,1.712224,31
15,0,0,1,0.983624,32
15,0,1,0,1.612384,33
15,1,1,1,1.405162,34
15,0,0,1,1.389839,35
15,0,0,1,NA,36
15,1,1,1,1.414542,37
15,1,1,1,1.19703,38
15,0,0,1,NA,39
15,0,0,1,0.867481,40
15,0,0,1,0.866036,41
15,0,0,1,0.865754,42
15,0,0,1,0.984645,43
15,1,1,1,1.812738,44
15,0,0,1,1.49935,45
15,1,1,1,1.606774,46
15,1,1,1,0.979408,47
15,1,1,1,1.202397,48
15,1,1,1,0.983285,49
15,1,1,1,1.193432,50
15,1,0,0,1.531116,51
15,1,1,1,1.398105,52
15,1,1,1,0.867738,53
15,0,1,0,0.967763,54
15,1,1,1,1.084918,55
15,1,1,1,1.192487,56
15,0,1,0,1.421179,57
15,1,1,1,0.983999,58
15,1,1,1,0.98135,59
15,1,1,1,1.095847,60
15,0,0,1,1.513504,61
15,0,0,1,0.984612,62
15,0,0,1,0.978547,63
15,0,0,1,1.182422,64
15,0,0,1,1.204428,65
15,1,1,1,2.691739,66
15,1,1,1,0.973957,67
15,0,1,0,1.529873,68
15,0,0,1,1.93518,69
15,0,0,1,1.177742,70
15,0,0,1,1.098001,71
15,1,1,1,1.516064,72
15,0,0,1,1.508512,73
15,1,1,1,1.400313,74
15,1,1,1,1.094335,75
15,0,0,1,1.504021,76
15,0,1,0,1.724133,77
15,1,1,1,1.206804,78
15,1,1,1,0.981018,79
15,0,0,1,1.398809,80
15,0,0,1,1.107741,81
15,1,1,1,1.524517,82
15,0,0,1,1.701988,83
15,0,1,0,2.800534,84
15,0,1,0,1.072444,85
15,0,1,0,1.40379,86
15,1,1,1,NA,87
15,1,1,1,1.08965,88
15,1,1,1,1.207468,89
15,1,1,1,1.205293,90
15,1,1,1,2.947258,91
15,0,0,1,1.740505,92
15,0,1,0,2.565266,93
15,0,1,0,1.281961,94
15,1,1,1,1.839163,95
15,0,1,0,1.193193,96
15,0,0,1,1.611735,97
15,0,0,1,NA,98
15,0,0,1,1.301574,99
15,0,0,1,1.088266,100
15,0,1,0,1.602524,101
15,1,0,0,1.586354,102
15,0,1,0,1.381024,103
15,1,1,1,1.085471,104
15,1,1,1,1.08583,105
15,1,1,1,1.741184,106
15,1,1,1,1.083583,107
15,0,1,0,1.072106,108
15,1,1,1,1.196606,109
15,1,1,1,1.647524,110
15,1,1,1,1.323398,111
15,0,0,1,2.586916,112
16,1,1,1,NA,1
16,1,1,1,1.21478,2
16,1,1,1,1.19256,3
16,1,1,1,2.173321,4
16,0,0,1,2.040279,5
16,0,0,1,1.601298,6
16,0,0,1,1.064054,7
16,1,1,1,1.507364,8
16,1,1,1,NA,9
16,1,1,1,1.096032,10
16,0,0,1,1.501495,11
16,1,1,1,1.149806,12
16,1,1,1,0.878457,13
16,0,1,0,2.400602,14
16,0,0,1,1.95065,15
16,1,1,1,1.086058,16
16,0,0,1,1.3715,17
16,0,0,1,1.577391,18
16,0,0,1,1.075681,19
16,0,0,1,1.606594,20
16,1,1,1,1.393503,21
16,1,1,1,1.200235,22
16,0,0,1,1.919105,23
16,1,1,1,1.396468,24
16,1,1,1,NA,25
16,1,1,1,1.325889,26
16,1,1,1,1.069849,27
16,0,0,1,1.535988,28
16,1,1,1,1.071399,29
16,1,1,1,1.212367,30
16,0,0,1,NA,31
16,1,1,1,1.277012,32
16,0,0,1,1.59556,33
16,1,1,1,1.716932,34
16,0,0,1,1.421433,35
16,1,1,1,1.369444,36
16,1,1,1,0.988824,37
16,0,1,0,1.207632,38
16,1,1,1,1.0932,39
16,0,1,0,1.094647,40
16,1,1,1,0.85566,41
16,0,1,0,0.86918,42
16,1,1,1,1.100433,43
16,0,1,0,0.973842,44
16,1,1,1,2.184652,45
16,1,1,1,1.191875,46
16,0,0,1,1.387415,47
16,0,0,1,1.373731,48
16,0,0,1,1.093748,49
16,1,1,1,1.418214,50
16,0,0,1,1.737873,51
16,1,1,1,2.37039,52
16,0,0,1,1.300551,53
16,1,1,1,1.413009,54
16,1,1,1,1.219825,55
16,1,1,1,0.978606,56
16,1,1,1,1.094276,57
16,0,1,0,1.190873,58
16,0,0,1,1.512901,59
16,1,1,1,1.170336,60
16,1,1,1,1.100072,61
16,1,1,1,1.213373,62
16,0,0,1,1.699806,63
16,0,0,1,2.050607,64
16,1,1,1,1.269707,65
16,1,1,1,1.18848,66
16,0,1,0,0.872575,67
16,0,0,1,1.482397,68
16,1,1,1,1.595763,69
16,1,1,1,1.205426,70
16,0,0,1,1.480866,71
16,0,0,1,1.468218,72
16,1,1,1,1.37517,73
16,1,1,1,1.207828,74
16,0,0,1,1.614298,75
16,0,0,1,NA,76
16,0,0,1,1.199441,77
16,0,0,1,1.302028,78
16,0,0,1,1.093813,79
16,1,1,1,1.494689,80
16,1,1,1,0.962381,81
16,1,1,1,0.863675,82
16,1,1,1,1.192023,83
16,0,1,0,1.547188,84
16,0,0,1,1.505089,85
16,0,0,1,1.100672,86
16,1,1,1,2.044292,87
16,0,0,1,1.405057,88
16,0,0,1,1.852149,89
16,0,0,1,1.097346,90
16,0,0,1,1.189628,91
16,1,1,1,1.696713,92
16,0,0,1,1.92397,93
16,1,1,1,1.381819,94
16,1,1,1,1.067409,95
16,0,1,0,1.314468,96
16,1,1,1,1.095982,97
16,0,1,0,0.988714,98
16,1,1,1,1.178721,99
16,0,0,1,2.452249,100
16,0,0,1,1.166644,101
16,1,1,1,1.501999,102
16,0,0,1,1.353904,103
16,1,1,1,1.453928,104
16,0,0,1,1.391651,105
16,0,1,0,1.261432,106
16,0,0,1,2.193645,107
16,0,0,1,1.478401,108
16,1,1,1,1.498511,109
16,0,0,1,1.387157,110
16,1,1,1,1.369012,111
16,0,0,1,1.94049,112
17,1,1,1,2.237151,1
17,1,1,1,1.8654,2
17,0,0,1,1.720457,3
17,0,0,1,1.309745,4
17,1,1,1,1.589412,5
17,1,1,1,NA,6
17,1,0,0,NA,7
17,0,0,1,2.309793,8
17,1,1,1,1.426571,9
17,0,0,1,1.611946,10
17,0,0,1,1.070067,11
17,0,0,1,1.183819,12
17,0,0,1,0.989833,13
17,0,0,1,1.191675,14
17,0,0,1,1.097276,15
17,1,1,1,1.40122,16
17,1,1,1,1.184976,17
17,1,0,0,NA,18
17,0,0,1,0.988278,19
17,1,1,1,1.393367,20
17,1,1,1,1.186343,21
17,0,0,1,1.51672,22
17,1,1,1,1.504602,23
17,1,1,1,1.513279,24
17,1,1,1,2.176988,25
17,1,1,1,1.315194,26
17,0,0,1,1.289836,27
17,1,1,1,1.493877,28
17,0,0,1,1.064662,29
17,0,0,1,1.096078,30
17,0,0,1,0.986015,31
17,0,1,0,NA,32
17,0,0,1,1.285642,33
17,0,0,1,0.972247,34
17,0,0,1,0.970804,35
17,0,0,1,0.86081,36
17,1,0,0,1.526871,37
17,1,1,1,1.389169,38
17,1,1,1,1.081118,39
17,0,0,1,1.29837,40
17,0,0,1,0.975209,41
17,1,1,1,1.184674,42
17,0,0,1,1.273083,43
17,0,1,0,1.487538,44
17,0,0,1,1.783243,45
17,1,1,1,1.701684,46
17,1,1,1,1.170158,47
17,1,1,1,1.050082,48
17,0,0,1,1.3834,49
17,0,0,1,1.051927,50
17,1,0,0,NA,51
17,0,0,1,1.185621,52
17,1,1,1,1.140336,53
17,0,0,1,2.291875,54
17,1,1,1,NA,55
17,1,1,1,0.961681,56
17,0,1,0,1.049188,57
17,0,0,1,1.272279,58
17,0,0,1,1.380609,59
17,1,1,1,1.418838,60
17,0,0,1,1.387852,61
17,0,0,1,1.102744,62
17,0,0,1,0.990383,63
17,1,1,1,1.413288,64
17,0,0,1,1.389798,65
17,1,1,1,1.638434,66
17,1,1,1,1.248033,67
17,1,1,1,1.282882,68
17,1,1,1,0.944249,69
17,1,1,1,1.270286,70
17,0,0,1,1.588829,71
17,0,1,0,2.263354,72
17,0,1,0,1.838818,73
17,0,0,1,1.460618,74
17,1,1,1,1.794293,75
17,0,0,1,1.561911,76
17,1,1,1,1.159335,77
17,0,0,1,1.385925,78
17,1,1,1,1.497357,79
17,0,0,1,1.301734,80
17,1,1,1,1.924213,81
17,1,1,1,1.27196,82
17,1,1,1,0.970947,83
17,1,1,1,1.679559,84
17,0,0,1,2.244513,85
17,0,0,1,1.184869,86
17,0,0,1,1.096566,87
17,0,0,1,1.171211,88
17,1,1,1,1.407882,89
17,1,1,1,0.960346,90
17,1,1,1,0.992076,91
17,0,0,1,1.484218,92
17,0,0,1,2.622636,93
17,1,1,1,1.51994,94
17,0,1,0,1.92328,95
17,1,1,1,1.853018,96
17,1,1,1,1.076908,97
17,0,0,1,1.619455,98
17,1,1,1,1.517916,99
17,0,0,1,1.835448,100
17,0,0,1,1.606368,101
17,0,0,1,1.08523,102
17,1,1,1,1.831051,103
17,1,1,1,1.638727,104
17,1,1,1,1.404653,105
17,0,1,0,1.089606,106
17,1,1,1,1.102538,107
17,1,1,1,1.096061,108
17,1,1,1,1.208151,109
17,1,1,1,1.093128,110
17,1,1,1,0.972158,111
17,0,1,0,0.871213,112
18,0,0,1,1.756205,1
18,1,1,1,1.592714,2
18,0,0,1,1.481195,3
18,1,1,1,1.46276,4
18,0,0,1,1.482265,5
18,1,1,1,1.600128,6
18,1,1,1,1.165797,7
18,0,0,1,1.393147,8
18,1,1,1,1.484729,9
18,1,1,1,1.791037,10
18,0,0,1,1.481003,11
18,1,1,1,1.59233,12
18,1,1,1,NA,13
18,1,1,1,1.49587,14
18,1,1,1,2.405749,15
18,1,1,1,NA,16
18,0,0,1,1.38903,17
18,0,0,1,1.182783,18
18,0,0,1,NA,19
18,1,1,1,NA,20
18,1,1,1,1.529262,21
18,0,0,1,NA,22
18,1,1,1,1.830332,23
18,0,0,1,1.597432,24
18,1,1,1,1.471516,25
18,0,0,1,NA,26
18,1,1,1,NA,27
18,0,0,1,1.506678,28
18,1,1,1,NA,29
18,1,1,1,1.200712,30
18,1,1,1,1.090086,31
18,0,0,1,1.396983,32
18,0,0,1,1.092496,33
18,0,0,1,1.53905,34
18,0,0,1,1.201332,35
18,0,0,1,1.095288,36
18,0,0,1,1.09908,37
18,0,0,1,1.221976,38
18,1,1,1,1.734091,39
18,1,1,1,1.60173,40
18,1,1,1,1.29924,41
18,0,0,1,1.404309,42
18,0,0,1,2.268636,43
18,1,1,1,1.611001,44
18,1,1,1,1.366789,45
18,1,1,1,1.493572,46
18,1,1,1,0.985802,47
18,1,1,1,1.199441,48
18,0,0,1,1.830486,49
18,1,1,1,1.404111,50
18,1,1,1,1.693711,51
18,1,1,1,1.274054,52
18,1,1,1,1.498729,53
18,0,0,1,1.508484,54
18,1,1,1,1.383296,55
18,1,1,1,1.278284,56
18,0,0,1,1.375747,57
18,0,0,1,1.478823,58
18,0,0,1,1.473364,59
18,0,0,1,1.306496,60
18,1,1,1,1.563374,61
18,1,1,1,1.587797,62
18,1,1,1,1.254408,63
18,0,0,1,1.482649,64
18,1,1,1,1.598553,65
18,0,0,1,1.488933,66
18,1,1,1,1.466007,67
18,0,0,1,1.481675,68
18,1,1,1,1.276226,69
18,0,0,1,1.680232,70
18,0,0,1,1.489108,71
18,0,0,1,1.264514,72
18,1,1,1,1.473474,73
18,0,0,1,1.368428,74
18,1,1,1,1.935509,75
18,1,1,1,1.485407,76
18,0,0,1,1.594907,77
18,0,0,1,1.475413,78
18,0,0,1,1.160764,79
18,1,1,1,1.259577,80
18,0,0,1,1.276096,81
18,0,0,1,2.196438,82
18,1,1,1,1.506075,83
18,0,0,1,2.204541,84
18,1,1,1,1.695537,85
18,0,0,1,1.573885,86
18,0,0,1,1.173561,87
18,0,0,1,1.412432,88
18,1,1,1,1.831695,89
18,0,0,1,NA,90
18,0,0,1,2.203813,91
18,0,0,1,1.874416,92
18,1,1,1,1.501318,93
18,1,1,1,1.436459,94
18,1,1,1,1.793621,95
18,1,1,1,1.564271,96
18,0,0,1,1.473757,97
18,0,1,0,NA,98
18,0,0,1,NA,99
18,1,1,1,1.715944,100
18,0,1,0,NA,101
18,0,0,1,1.793884,102
18,1,1,1,1.273542,103
18,0,0,1,1.769275,104
18,1,1,1,1.573443,105
18,1,1,1,NA,106
18,0,0,1,1.718133,107
18,1,1,1,1.375249,108
18,0,0,1,2.01473,109
18,1,1,1,1.578638,110
18,0,1,0,1.258664,111
18,0,0,1,1.374448,112
19,0,0,1,2.247411,1
19,0,0,1,1.198753,2
19,0,0,1,1.42431,3
19,0,0,1,1.105591,4
19,0,1,0,2.376336,5
19,1,1,1,1.395944,6
19,0,0,1,1.605888,7
19,0,1,0,2.145809,8
19,1,1,1,1.191073,9
19,0,0,1,1.494346,10
19,1,1,1,1.597509,11
19,0,1,0,1.096327,12
19,1,1,1,1.204303,13
19,0,0,1,1.502512,14
19,1,1,1,1.086964,15
19,1,1,1,1.380272,16
19,0,1,0,1.303795,17
19,1,0,0,1.704066,18
19,0,0,1,1.493138,19
19,0,0,1,1.493275,20
19,0,0,1,1.486312,21
19,1,1,1,1.271279,22
19,1,1,1,1.500847,23
19,1,1,1,1.519812,24
19,0,0,1,1.576505,25
19,1,1,1,1.297308,26
19,0,1,0,1.162649,27
19,1,1,1,1.180643,28
19,1,1,1,1.321444,29
19,0,1,0,1.284104,30
19,0,0,1,1.484861,31
19,1,0,0,2.23343,32
19,0,1,0,1.187993,33
19,1,0,0,1.388984,34
19,0,0,1,1.593384,35
19,0,0,1,NA,36
19,1,1,1,1.900278,37
19,0,1,0,1.517957,38
19,1,1,1,1.183804,39
19,1,1,1,0.973265,40
19,1,1,1,0.976168,41
19,1,1,1,1.316286,42
19,0,1,0,1.22051,43
19,1,1,1,1.187599,44
19,0,0,1,NA,45
19,1,1,1,1.263918,46
19,0,0,1,1.708542,47
19,1,1,1,1.373682,48
19,1,1,1,1.608682,49
19,0,1,0,1.075234,50
19,0,0,1,1.407705,51
19,1,1,1,1.09567,52
19,0,0,1,1.474652,53
19,0,1,0,1.270714,54
19,1,1,1,1.086314,55
19,0,1,0,1.381101,56
19,1,1,1,1.495632,57
19,1,1,1,1.380415,58
19,0,0,1,1.157723,59
19,1,1,1,2.018998,60
19,0,1,0,NA,61
19,0,0,1,2.054085,62
19,0,1,0,NA,63
19,1,1,1,2.427149,64
19,0,1,0,1.214562,65
19,1,1,1,0.966989,66
19,1,0,0,NA,67
19,0,0,1,1.391917,68
19,0,0,1,1.558834,69
19,1,1,1,1.597891,70
19,1,1,1,NA,71
19,1,1,1,1.488852,72
19,0,0,1,1.378357,73
19,0,1,0,1.719967,74
19,0,1,0,1.100283,75
19,1,1,1,1.412436,76
19,0,1,0,NA,77
19,0,1,0,1.435283,78
19,1,1,1,1.416748,79
19,1,1,1,1.310736,80
19,1,1,1,1.089085,81
19,0,0,1,1.365619,82
19,1,1,1,1.083205,83
19,1,1,1,1.477317,84
19,1,1,1,1.913783,85
19,1,1,1,1.476869,86
19,0,1,0,1.044343,87
19,1,1,1,1.162661,88
19,0,0,1,1.40987,89
19,1,0,0,1.372811,90
19,1,1,1,1.378728,91
19,1,1,1,0.988843,92
19,1,1,1,1.188226,93
19,1,1,1,0.86641,94
19,0,0,1,NA,95
19,1,1,1,1.397349,96
19,0,1,0,0.877714,97
19,1,1,1,0.861997,98
19,0,0,1,1.623977,99
19,0,1,0,1.057436,100
19,1,1,1,1.092573,101
19,0,1,0,1.094934,102
19,0,1,0,0.871306,103
19,0,1,0,1.307044,104
19,0,1,0,1.31829,105
19,0,1,0,1.593177,106
19,1,0,0,1.48046,107
19,0,0,1,1.484719,108
19,1,1,1,1.480421,109
19,0,0,1,1.834304,110
19,1,1,1,0.960004,111
19,1,1,1,NA,112
20,1,1,1,NA,1
20,1,0,0,NA,2
20,0,0,1,1.098158,3
20,0,0,1,0.979012,4
20,0,0,1,0.979714,5
20,0,0,1,2.108838,6
20,1,1,1,1.703762,7
20,0,0,1,1.168151,8
20,0,0,1,1.076597,9
20,0,0,1,0.981295,10
20,0,0,1,1.08429,11
20,0,0,1,0.984786,12
20,1,1,1,1.800355,13
20,1,1,1,1.385622,14
20,1,1,1,1.077648,15
20,0,0,1,1.30023,16
20,0,0,1,1.253837,17
20,1,1,1,1.396572,18
20,1,1,1,1.38933,19
20,0,0,1,1.391787,20
20,1,1,1,1.423079,21
20,0,0,1,1.60533,22
20,1,0,0,NA,23
20,0,1,0,1.575084,24
20,0,0,1,1.388951,25
20,0,0,1,1.195116,26
20,0,0,1,0.977715,27
20,1,1,1,1.483762,28
20,1,1,1,1.248229,29
20,1,1,1,0.980965,30
20,1,1,1,1.169733,31
20,0,0,1,1.271712,32
20,0,0,1,1.481787,33
20,1,1,1,1.28585,34
20,1,1,1,1.205914,35
20,1,1,1,1.42111,36
20,0,0,1,1.392031,37
20,0,0,1,1.261044,38
20,1,1,1,1.500971,39
20,0,0,1,1.199688,40
20,0,0,1,1.396102,41
20,0,0,1,1.274817,42
20,0,0,1,1.175545,43
20,0,0,1,1.317471,44
20,1,1,1,1.50454,45
20,0,0,1,1.401032,46
20,0,0,1,1.258879,47
20,0,1,0,1.401829,48
20,1,1,1,1.609965,49
20,0,0,1,1.397021,50
20,0,0,1,1.261238,51
20,0,0,1,0.970717,52
20,1,0,0,1.422151,53
20,1,1,1,1.495522,54
20,0,0,1,1.511999,55
20,0,0,1,2.016774,56
20,1,1,1,1.080943,57
20,1,1,1,1.10065,58
20,1,1,1,0.985083,59
20,1,1,1,1.204428,60
20,0,0,1,1.505992,61
20,1,1,1,1.381371,62
20,0,0,1,1.496052,63
20,1,1,1,1.086341,64
20,0,0,1,1.714513,65
20,0,1,0,1.467382,66
20,1,1,1,0.977938,67
20,0,0,1,1.495561,68
20,0,0,1,1.789728,69
20,0,0,1,1.474254,70
20,1,1,1,1.159516,71
20,1,1,1,1.209462,72
20,1,1,1,1.096345,73
20,1,1,1,0.986235,74
20,1,1,1,1.197586,75
20,0,0,1,1.504477,76
20,1,1,1,1.080829,77
20,1,1,1,1.089435,78
20,0,0,1,1.625269,79
20,0,0,1,1.72771,80
20,1,1,1,1.192167,81
20,0,0,1,1.416815,82
20,1,1,1,1.494976,83
20,1,1,1,0.985519,84
20,1,1,1,0.961704,85
20,1,1,1,2.05349,86
20,0,0,1,1.616226,87
20,1,1,1,1.085862,88
20,0,0,1,1.41039,89
20,1,1,1,1.078873,90
20,1,1,1,1.098503,91
20,1,1,1,1.099775,92
20,0,0,1,1.478854,93
20,1,1,1,1.190425,94
20,1,1,1,1.092374,95
20,0,0,1,2.026737,96
20,1,1,1,1.071327,97
20,1,1,1,1.088485,98
20,1,1,1,0.98186,99
20,0,0,1,1.392061,100
20,1,1,1,1.07082,101
20,1,1,1,1.193031,102
20,0,0,1,1.718049,103
20,0,0,1,2.335225,104
20,1,1,1,1.15778,105
20,0,1,0,1.0841750000000001,106
20,0,0,1,1.506361,107
20,0,0,1,1.617817,108
20,0,0,1,1.47091,109
20,1,1,1,1.508294,110
20,1,1,1,0.973088,111
20,1,1,1,0.975841,112
21,0,0,1,1.937133,1
21,1,1,1,1.725683,2
21,0,0,1,1.621045,3
21,0,1,0,1.723023,4
21,1,1,1,1.68438,5
21,0,0,1,1.487119,6
21,0,0,1,1.498957,7
21,0,0,1,1.602712,8
21,0,0,1,1.20951,9
21,1,1,1,1.845576,10
21,0,0,1,1.255106,11
21,0,1,0,1.614044,12
21,1,1,1,1.921054,13
21,0,0,1,1.5105,14
21,0,0,1,1.796377,15
21,0,0,1,1.378162,16
21,1,1,1,1.803941,17
21,1,1,1,1.683294,18
21,0,0,1,1.389453,19
21,0,0,1,1.298923,20
21,0,0,1,2.815622,21
21,1,1,1,1.293602,22
21,0,0,1,1.621356,23
21,1,1,1,1.295085,24
21,1,1,1,1.21001,25
21,0,0,1,1.617473,26
21,1,1,1,1.602507,27
21,1,1,1,1.511108,28
21,0,0,1,1.625174,29
21,1,1,1,1.812957,30
21,0,0,1,1.504367,31
21,1,1,1,1.821978,32
21,1,1,1,1.29718,33
21,1,1,1,1.09358,34
21,0,1,0,1.521425,35
21,0,0,1,1.51995,36
21,0,0,1,2.103538,37
21,0,0,1,1.307861,38
21,0,0,1,1.202809,39
21,1,1,1,1.726634,40
21,1,1,1,1.289858,41
21,0,1,0,1.303332,42
21,0,0,1,1.597663,43
21,1,1,1,1.812239,44
21,1,1,1,1.929876,45
21,1,0,0,1.618036,46
21,0,0,1,1.303729,47
21,0,0,1,1.195508,48
21,1,1,1,1.812086,49
21,1,1,1,1.63769,50
21,1,1,1,1.420384,51
21,0,0,1,1.72428,52
21,1,0,0,1.643129,53
21,1,1,1,1.279661,54
21,0,1,0,1.200268,55
21,1,1,1,1.968157,56
21,1,1,1,1.4045,57
21,0,1,0,1.958362,58
21,0,0,1,1.921619,59
21,0,0,1,1.70837,60
21,1,1,1,1.59923,61
21,0,0,1,1.928456,62
21,1,1,1,NA,63
21,0,1,0,1.314217,64
21,1,1,1,NA,65
21,1,1,1,1.942195,66
21,1,1,1,1.87651,67
21,0,1,0,1.423594,68
21,0,1,0,1.321071,69
21,1,1,1,1.30813,70
21,1,1,1,1.20765,71
21,1,1,1,1.209654,72
21,0,0,1,1.846714,73
21,0,0,1,1.403788,74
21,0,0,1,1.300403,75
21,0,0,1,2.244261,76
21,0,0,1,1.499275,77
21,1,1,1,1.924277,78
21,1,1,1,1.201519,79
21,1,1,1,1.2151,80
21,1,1,1,1.322832,81
21,1,1,1,1.314005,82
21,1,1,1,1.320227,83
21,0,1,0,1.41437,84
21,1,1,1,1.432343,85
21,1,1,1,1.321372,86
21,1,1,1,1.206007,87
21,1,1,1,1.220352,88
21,0,1,0,1.536759,89
21,0,0,1,2.457845,90
21,0,0,1,1.601386,91
21,1,1,1,1.735118,92
21,0,1,0,1.501763,93
21,1,1,1,1.629008,94
21,1,1,1,2.307841,95
21,0,1,0,1.912777,96
21,0,0,1,1.813934,97
21,0,1,0,2.1429,98
21,1,1,1,1.606106,99
21,0,1,0,1.643921,100
21,1,1,1,1.431865,101
21,1,1,1,1.604849,102
21,0,1,0,1.41479,103
21,0,0,1,1.829748,104
21,1,1,1,1.892429,105
21,1,1,1,1.726107,106
21,1,1,1,1.326516,107
21,0,1,0,1.310355,108
21,1,1,1,1.203873,109
21,0,1,0,1.098203,110
21,0,0,1,1.944823,111
21,1,1,1,2.15708,112
22,1,1,1,2.393576,1
22,0,0,1,1.396914,2
22,0,0,1,1.090896,3
22,0,0,1,1.523491,4
22,1,1,1,1.604943,5
22,1,1,1,1.194269,6
22,0,0,1,1.38538,7
22,0,0,1,1.097151,8
22,1,1,1,1.604167,9
22,0,0,1,1.289525,10
22,1,1,1,2.054519,11
22,0,0,1,1.269759,12
22,0,0,1,1.172512,13
22,0,1,0,1.601199,14
22,0,0,1,1.483182,15
22,0,0,1,0.976653,16
22,1,1,1,2.150479,17
22,1,1,1,1.698062,18
22,1,1,1,1.835928,19
22,0,0,1,1.500866,20
22,1,1,1,1.407313,21
22,0,0,1,1.492269,22
22,1,1,1,1.258767,23
22,1,1,1,1.469264,24
22,0,0,1,1.287258,25
22,0,0,1,1.093553,26
22,1,1,1,1.511949,27
22,0,0,1,2.229478,28
22,1,1,1,1.485795,29
22,1,1,1,1.288382,30
22,1,1,1,0.980207,31
22,1,1,1,1.084003,32
22,1,1,1,1.074405,33
22,0,0,1,1.714883,34
22,1,1,1,1.150409,35
22,1,1,1,1.196126,36
22,0,0,1,1.501712,37
22,0,0,1,1.448729,38
22,1,1,1,NA,39
22,0,0,1,2.119178,40
22,1,1,1,1.605418,41
22,0,0,1,1.721865,42
22,0,0,1,1.48793,43
22,0,0,1,1.286565,44
22,0,0,1,1.089848,45
22,0,0,1,1.198119,46
22,0,0,1,1.086286,47
22,1,1,1,1.932245,48
22,0,0,1,1.382699,49
22,1,1,1,1.713159,50
22,0,0,1,1.409067,51
22,0,0,1,1.579727,52
22,0,0,1,1.203641,53
22,0,0,1,1.720008,54
22,1,1,1,1.499023,55
22,1,1,1,1.316084,56
22,1,1,1,1.085211,57
22,0,0,1,1.727406,58
22,1,1,1,1.79993,59
22,1,1,1,1.38961,60
22,1,1,1,0.984548,61
22,1,1,1,1.092886,62
22,0,0,1,1.415265,63
22,0,0,1,1.502822,64
22,0,1,0,1.579075,65
22,1,1,1,1.186219,66
22,1,1,1,1.203219,67
22,1,1,1,1.089378,68
22,1,0,0,1.716861,69
22,1,1,1,1.387739,70
22,1,1,1,1.200188,71
22,0,0,1,1.593449,72
22,0,0,1,1.815817,73
22,1,1,1,1.790194,74
22,0,0,1,1.510057,75
22,0,0,1,1.091075,76
22,1,1,1,1.501112,77
22,0,1,0,1.423922,78
22,0,1,0,1.199344,79
22,1,1,1,1.206962,80
22,1,1,1,1.092748,81
22,0,0,1,2.047419,82
22,1,1,1,1.473938,83
22,1,0,0,1.59254,84
22,0,1,0,1.175139,85
22,1,1,1,1.415999,86
22,0,0,1,1.606667,87
22,0,1,0,1.796875,88
22,1,1,1,1.182002,89
22,1,1,1,1.421687,90
22,0,0,1,1.58456,91
22,1,0,0,2.451377,92
22,1,1,1,1.59279,93
22,0,0,1,1.589802,94
22,1,1,1,1.272024,95
22,0,0,1,1.61192,96
22,0,1,0,1.45113,97
22,1,1,1,1.537555,98
22,0,0,1,NA,99
22,1,1,1,1.603123,100
22,1,1,1,1.29967,101
22,0,0,1,1.621692,102
22,0,0,1,1.188656,103
22,0,0,1,1.30642,104
22,0,1,0,2.148779,105
22,1,1,1,1.609243,106
22,0,1,0,1.722156,107
22,1,1,1,1.198199,108
22,1,1,1,1.183276,109
22,1,1,1,1.201437,110
22,1,1,1,1.3051,111
22,0,0,1,1.616685,112
23,1,1,1,NA,1
23,0,0,1,1.824682,2
23,1,1,1,2.232383,3
23,0,1,0,2.285022,4
23,0,0,1,NA,5
23,1,0,0,1.92928,6
23,0,0,1,1.1012,7
23,1,1,1,1.719196,8
23,1,1,1,1.596141,9
23,0,0,1,1.058018,10
23,1,1,1,1.86558,11
23,1,1,1,1.59171,12
23,1,1,1,1.480106,13
23,0,0,1,1.274485,14
23,1,1,1,2.144852,15
23,0,0,1,1.466748,16
23,0,0,1,1.207877,17
23,1,1,1,2.049557,18
23,1,1,1,1.601538,19
23,1,1,1,1.703337,20
23,1,1,1,1.78734,21
23,1,1,1,2.233123,22
23,0,0,1,1.50868,23
23,0,0,1,0.984747,24
23,1,0,0,1.415856,25
23,0,0,1,1.71589,26
23,0,0,1,1.488231,27
23,0,0,1,1.202438,28
23,0,0,1,1.091015,29
23,0,0,1,0.995389,30
23,0,0,1,1.314514,31
23,1,1,1,1.5175399999999999,32
23,0,0,1,1.485582,33
23,1,1,1,1.492095,34
23,0,0,1,1.141579,35
23,1,1,1,1.38062,36
23,1,0,0,1.171022,37
23,1,1,1,1.715116,38
23,0,0,1,1.196576,39
23,1,1,1,2.054028,40
23,1,0,0,1.487341,41
23,0,0,1,1.097701,42
23,1,1,1,1.486905,43
23,1,1,1,1.465817,44
23,0,0,1,2.029962,45
23,0,0,1,1.415736,46
23,0,0,1,1.210678,47
23,0,0,1,1.102117,48
23,1,0,0,1.297232,49
23,1,0,0,1.207743,50
23,0,0,1,1.610981,51
23,0,0,1,1.208423,52
23,0,0,1,1.104798,53
23,1,1,1,1.481345,54
23,0,0,1,1.603024,55
23,0,0,1,0.989391,56
23,1,0,0,1.09116,57
23,0,0,1,1.43069,58
23,0,0,1,1.084375,59
23,1,0,0,1.620618,60
23,1,0,0,1.06875,61
23,1,1,1,1.628567,62
23,0,0,1,1.625394,63
23,0,0,1,1.099249,64
23,1,1,1,1.507788,65
23,1,1,1,1.801766,66
23,1,1,1,1.699738,67
23,1,1,1,1.811434,68
23,0,0,1,1.726453,69
23,0,0,1,1.19606,70
23,0,0,1,1.09612,71
23,0,0,1,1.092213,72
23,1,0,0,1.726979,73
23,1,0,0,2.288374,74
23,1,1,1,1.85057,75
23,1,1,1,1.085363,76
23,1,1,1,1.088374,77
23,0,1,0,1.214812,78
23,0,0,1,1.280493,79
23,0,0,1,1.099083,80
23,0,0,1,1.095772,81
23,0,0,1,1.09552,82
23,1,1,1,1.608791,83
23,0,0,1,1.797774,84
23,0,1,0,2.027479,85
23,0,0,1,1.248095,86
23,0,0,1,1.095079,87
23,1,0,0,NA,88
23,0,0,1,1.609818,89
23,1,0,0,NA,90
23,0,1,0,1.570502,91
23,1,1,1,2.387597,92
23,0,1,0,1.650401,93
23,0,1,0,1.937802,94
23,0,1,0,1.620211,95
23,1,1,1,1.184693,96
23,1,1,1,1.201915,97
23,1,1,1,1.206634,98
23,1,1,1,1.195023,99
23,1,1,1,0.980624,100
23,0,1,0,1.192422,101
23,0,0,1,1.48813,102
23,1,0,0,1.634281,103
23,0,0,1,1.096879,104
23,1,0,0,1.652242,105
23,1,1,1,1.738138,106
23,1,1,1,2.088281,107
23,0,0,1,1.710606,108
23,1,1,1,1.938938,109
23,1,1,1,1.896481,110
23,0,1,0,2.286305,111
23,1,1,1,1.29525,112
24,0,0,1,1.100463,1
24,0,0,1,NA,2
24,0,0,1,1.086588,3
24,1,1,1,1.708929,4
24,0,0,1,2.498742,5
24,0,0,1,1.089802,6
24,0,0,1,NA,7
24,1,1,1,1.614694,8
24,1,1,1,1.299964,9
24,0,0,1,1.405953,10
24,1,1,1,1.403025,11
24,1,1,1,1.089372,12
24,0,0,1,1.395344,13
24,1,1,1,1.506338,14
24,0,0,1,3.880144,15
24,1,1,1,1.289443,16
24,1,1,1,1.163941,17
24,1,1,1,1.195308,18
24,0,0,1,1.407906,19
24,0,0,1,1.294537,20
24,0,0,1,2.252121,21
24,1,1,1,1.395279,22
24,0,0,1,1.709412,23
24,0,0,1,1.291773,24
24,1,1,1,1.399593,25
24,0,0,1,1.303261,26
24,0,0,1,1.290469,27
24,1,1,1,1.576135,28
24,0,0,1,1.312902,29
24,1,1,1,1.314654,30
24,1,1,1,1.174516,31
24,0,0,1,1.29699,32
24,1,1,1,2.520903,33
24,1,1,1,2.168389,34
24,1,1,1,3.576105,35
24,1,1,1,NA,36
24,0,0,1,1.702545,37
24,0,0,1,1.291261,38
24,1,1,1,2.6181,39
24,1,1,1,3.13352,40
24,0,0,1,1.289461,41
24,0,0,1,1.289183,42
24,1,1,1,1.384262,43
24,0,0,1,1.404313,44
24,0,0,1,1.287124,45
24,1,1,1,1.496768,46
24,0,0,1,1.280919,47
24,0,0,1,1.507241,48
24,0,0,1,1.181315,49
24,0,0,1,1.276881,50
24,0,0,1,1.179168,51
24,1,1,1,1.419264,52
24,0,0,1,NA,53
24,0,0,1,NA,54
24,0,0,1,NA,55
24,0,0,1,1.491993,56
24,0,0,1,1.918201,57
24,1,1,1,2.057876,58
24,0,0,1,1.532757,59
24,0,0,1,1.287115,60
24,0,0,1,3.579774,61
24,1,1,1,1.912291,62
24,1,1,1,1.986843,63
24,1,1,1,2.59828,64
24,0,0,1,3.277823,65
24,1,1,1,1.733452,66
24,0,0,1,1.300552,67
24,0,0,1,1.380664,68
24,1,1,1,1.273162,69
24,1,1,1,NA,70
24,0,0,1,2.853916,71
24,0,0,1,1.383598,72
24,1,1,1,1.392017,73
24,1,1,1,1.293889,74
24,1,1,1,1.308487,75
24,1,1,1,1.420109,76
24,1,1,1,1.708443,77
24,1,1,1,1.17797,78
24,1,1,1,1.495134,79
24,1,1,1,3.16731,80
24,0,0,1,1.631641,81
24,0,0,1,1.402503,82
24,0,0,1,1.404401,83
24,1,0,0,1.380523,84
24,1,1,1,2.912823,85
24,0,0,1,1.590281,86
24,1,1,1,1.722801,87
24,0,0,1,1.394161,88
24,0,0,1,1.518847,89
24,1,1,1,1.724392,90
24,1,1,1,1.503616,91
24,1,1,1,1.412885,92
24,1,1,1,1.496077,93
24,0,0,1,1.497779,94
24,1,1,1,2.28115,95
24,0,0,1,2.577195,96
24,0,0,1,NA,97
24,1,1,1,1.69893,98
24,0,0,1,1.723749,99
24,1,1,1,2.364118,100
24,1,1,1,1.707439,101
24,1,1,1,1.894916,102
24,1,1,1,1.382878,103
24,1,1,1,3.149875,104
24,0,0,1,1.603767,105
24,0,0,1,1.499705,106
24,1,1,1,1.629977,107
24,1,1,1,1.280652,108
24,1,1,1,1.542345,109
24,0,0,1,1.520605,110
24,1,1,1,2.254415,111
24,0,0,1,2.050802,112
25,0,0,1,2.865902,1
25,1,1,1,3.511098,2
25,0,0,1,1.690906,3
25,0,0,1,1.497238,4
25,1,1,1,1.515348,5
25,1,1,1,1.171318,6
25,1,1,1,1.845276,7
25,1,1,1,2.641003,8
25,1,1,1,1.375153,9
25,1,1,1,2.312341,10
25,1,1,1,1.531022,11
25,0,0,1,2.11396,12
25,0,0,1,1.092491,13
25,1,1,1,2.141076,14
25,0,0,1,1.686078,15
25,0,0,1,0.98419,16
25,0,0,1,0.983864,17
25,0,0,1,0.983879,18
25,0,0,1,0.983254,19
25,1,1,1,1.936022,20
25,0,0,1,1.358508,21
25,0,0,1,0.973727,22
25,1,1,1,1.623061,23
25,0,0,1,1.281483,24
25,0,0,1,1.091258,25
25,0,0,1,1.091468,26
25,0,0,1,0.979058,27
25,0,0,1,1.091893,28
25,0,0,1,1.20801,29
25,1,1,1,1.699545,30
25,0,0,1,1.793288,31
25,1,1,1,1.8033,32
25,1,1,1,0.981704,33
25,1,1,1,1.091042,34
25,0,0,1,1.620823,35
25,0,0,1,1.08956,36
25,0,0,1,1.185177,37
25,0,0,1,0.980052,38
25,1,1,1,4.104651,39
25,0,1,0,2.745278,40
25,1,1,1,1.713823,41
25,0,0,1,1.808792,42
25,0,0,1,1.289028,43
25,0,0,1,1.079533,44
25,0,0,1,1.087359,45
25,0,0,1,1.310058,46
25,1,1,1,2.57321,47
25,1,0,0,1.915738,48
25,0,0,1,1.415633,49
25,0,0,1,1.525652,50
25,0,0,1,1.094211,51
25,1,1,1,2.386511,52
25,1,1,1,0.977333,53
25,0,0,1,1.731274,54
25,0,0,1,0.978731,55
25,0,0,1,0.977449,56
25,0,0,1,1.078027,57
25,1,1,1,NA,58
25,1,1,1,1.916461,59
25,1,1,1,1.306718,60
25,1,1,1,1.196673,61
25,1,1,1,1.086779,62
25,0,0,1,2.039794,63
25,1,1,1,2.371322,64
25,1,1,1,2.135807,65
25,1,1,1,1.196728,66
25,0,0,1,2.120068,67
25,1,1,1,2.658342,68
25,1,1,1,1.476182,69
25,1,1,1,1.196384,70
25,1,1,1,1.197857,71
25,1,1,1,1.523356,72
25,0,0,1,2.009894,73
25,1,1,1,2.028274,74
25,0,0,1,2.015864,75
25,1,1,1,1.815935,76
25,1,1,1,0.646284,77
25,1,0,0,1.280858,78
25,0,0,1,1.078888,79
25,1,1,1,1.838348,80
25,0,0,1,1.678032,81
25,0,0,1,1.413307,82
25,0,0,1,1.094454,83
25,0,0,1,0.988297,84
25,1,0,0,0.864969,85
25,1,1,1,2.129186,86
25,1,1,1,0.659957,87
25,1,1,1,1.579048,88
25,1,1,1,2.067733,89
25,1,1,1,1.310843,90
25,1,1,1,1.189567,91
25,1,1,1,1.09829,92
25,1,1,1,1.418773,93
25,1,1,1,1.097851,94
25,0,0,1,2.043401,95
25,0,1,0,2.25522,96
25,0,0,1,1.518966,97
25,0,0,1,1.400799,98
25,1,1,1,1.705116,99
25,0,1,0,2.027296,100
25,1,1,1,1.312312,101
25,0,0,1,2.1605,102
25,0,0,1,1.092963,103
25,1,0,0,1.518014,104
25,1,1,1,1.817801,105
25,0,1,0,1.535502,106
25,0,0,1,1.604163,107
25,0,0,1,1.41242,108
25,1,1,1,2.923254,109
25,0,0,1,1.820161,110
25,1,0,0,1.424846,111
25,1,1,1,2.800419,112
26,1,0,0,NA,1
26,0,0,1,1.194862,2
26,0,0,1,0.984952,3
26,0,0,1,0.982673,4
26,0,0,1,1.089137,5
26,0,0,1,1.088365,6
26,1,1,1,1.837982,7
26,1,0,0,2.162308,8
26,0,0,1,1.087267,9
26,1,1,1,1.532225,10
26,0,0,1,1.825346,11
26,0,0,1,1.092533,12
26,0,0,1,1.094637,13
26,1,1,1,1.287728,14
26,1,1,1,2.25585,15
26,0,0,1,NA,16
26,1,1,1,1.602868,17
26,0,0,1,1.721404,18
26,0,0,1,0.987004,19
26,0,0,1,0.978909,20
26,0,0,1,1.097606,21
26,1,1,1,1.490089,22
26,1,1,1,1.182655,23
26,0,0,1,1.699605,24
26,1,1,1,1.494995,25
26,1,1,1,1.196045,26
26,0,0,1,1.734862,27
26,0,0,1,1.103163,28
26,1,1,1,1.504648,29
26,0,0,1,1.523257,30
26,0,0,1,1.299706,31
26,1,1,1,1.49745,32
26,1,1,1,1.200778,33
26,1,1,1,0.988114,34
26,0,1,0,1.098504,35
26,0,0,1,1.701959,36
26,1,1,1,1.599536,37
26,0,0,1,1.51084,38
26,1,1,1,1.643118,39
26,1,1,1,0.98344,40
26,0,0,1,1.610905,41
26,1,1,1,1.392717,42
26,1,1,1,1.511223,43
26,0,0,1,1.725041,44
26,1,0,0,2.490199,45
26,1,1,1,1.515402,46
26,1,1,1,1.19516,47
26,0,0,1,1.513596,48
26,0,0,1,1.487196,49
26,0,0,1,NA,50
26,1,1,1,1.523872,51
26,1,0,0,1.826758,52
26,0,0,1,1.150961,53
26,1,1,1,1.400722,54
26,0,0,1,1.406233,55
26,0,0,1,1.099311,56
26,1,1,1,1.518367,57
26,1,1,1,0.987804,58
26,0,0,1,1.943804,59
26,0,0,1,1.823802,60
26,0,0,1,1.196725,61
26,0,0,1,1.199108,62
26,0,0,1,1.308159,63
26,1,1,1,1.71451,64
26,1,1,1,1.415247,65
26,0,0,1,1.710345,66
26,0,0,1,1.316606,67
26,0,0,1,1.197939,68
26,0,0,1,1.09611,69
26,0,0,1,1.090013,70
26,0,0,1,1.199228,71
26,0,0,1,1.195776,72
26,0,0,1,1.188803,73
26,1,0,0,1.643261,74
26,1,1,1,1.497701,75
26,1,1,1,1.31424,76
26,1,1,1,1.202938,77
26,1,1,1,1.104839,78
26,1,1,1,1.203623,79
26,1,1,1,1.52983,80
26,1,1,1,1.305524,81
26,1,1,1,1.194453,82
26,0,0,1,NA,83
26,1,1,1,1.601988,84
26,0,0,1,1.508676,85
26,0,0,1,1.193023,86
26,1,1,1,1.941517,87
26,1,1,1,1.542157,88
26,0,0,1,1.501319,89
26,1,1,1,1.510622,90
26,1,1,1,1.312197,91
26,0,0,1,1.409072,92
26,1,1,1,1.537517,93
26,1,1,1,1.495025,94
26,0,0,1,1.610411,95
26,1,1,1,1.512014,96
26,1,1,1,1.090803,97
26,0,0,1,1.616212,98
26,1,1,1,1.41099,99
26,1,1,1,1.201248,100
26,1,1,1,1.087654,101
26,0,0,1,1.720916,102
26,1,1,1,1.402258,103
26,0,0,1,2.365433,104
26,1,1,1,1.409695,105
26,1,1,1,1.182939,106
26,0,1,0,1.515631,107
26,0,1,0,1.527476,108
26,1,1,1,1.312896,109
26,0,0,1,1.476421,110
26,1,1,1,1.416309,111
26,0,0,1,1.910189,112
27,0,0,1,2.143197,1
27,1,1,1,1.384827,2
27,0,0,1,1.398874,3
27,1,1,1,1.93607,4
27,0,0,1,1.375711,5
27,1,1,1,1.49359,6
27,1,1,1,1.094116,7
27,1,1,1,1.194972,8
27,1,1,1,1.526329,9
27,0,0,1,1.81155,10
27,1,1,1,1.504617,11
27,1,1,1,1.366673,12
27,0,0,1,1.401394,13
27,0,0,1,1.189304,14
27,1,1,1,1.501087,15
27,1,1,1,1.094971,16
27,1,1,1,1.306693,17
27,0,0,1,1.490466,18
27,0,0,1,1.089824,19
27,1,1,1,1.693742,20
27,0,0,1,1.584135,21
27,1,1,1,1.390404,22
27,0,0,1,1.605943,23
27,1,1,1,1.387208,24
27,1,1,1,1.102306,25
27,1,1,1,1.405578,26
27,0,0,1,1.705867,27
27,0,0,1,NA,28
27,0,0,1,1.184999,29
27,0,0,1,1.086264,30
27,0,0,1,1.070767,31
27,0,0,1,1.089129,32
27,0,0,1,1.181899,33
27,0,0,1,1.083584,34
27,1,1,1,1.403855,35
27,1,1,1,1.199115,36
27,0,0,1,1.403959,37
27,0,0,1,2.075572,38
27,1,1,1,1.381551,39
27,0,0,1,1.385795,40
27,1,1,1,1.297308,41
27,1,1,1,1.091748,42
27,1,0,0,NA,43
27,0,0,1,1.84949,44
27,0,1,0,1.502121,45
27,0,0,1,1.585715,46
27,1,1,1,1.791907,47
27,0,0,1,1.367823,48
27,0,0,1,1.070899,49
27,1,0,0,NA,50
27,0,0,1,1.192163,51
27,0,0,1,1.086538,52
27,0,0,1,1.413521,53
27,0,0,1,1.084509,54
27,1,1,1,1.385101,55
27,0,0,1,1.924166,56
27,0,0,1,1.606663,57
27,1,1,1,1.49946,58
27,1,1,1,1.087378,59
27,1,1,1,1.088498,60
27,1,1,1,1.089981,61
27,0,0,1,1.482759,62
27,1,1,1,1.726246,63
27,1,1,1,1.089586,64
27,1,1,1,1.083849,65
27,1,1,1,NA,66
27,0,0,1,1.603598,67
27,1,1,1,1.595325,68
27,0,0,1,1.492432,69
27,0,1,0,2.173863,70
27,1,1,1,NA,71
27,1,1,1,1.101643,72
27,1,1,1,1.192703,73
27,0,0,1,1.61293,74
27,1,1,1,1.589807,75
27,1,1,1,1.305417,76
27,1,1,1,1.427114,77
27,0,0,1,1.61322,78
27,0,0,1,1.325214,79
27,0,0,1,1.097694,80
27,0,0,1,NA,81
27,1,1,1,1.389965,82
27,1,1,1,1.100957,83
27,0,0,1,1.614442,84
27,0,0,1,1.188607,85
27,0,0,1,1.192629,86
27,1,1,1,1.942064,87
27,0,0,1,2.107103,88
27,1,1,1,1.488925,89
27,1,1,1,1.429004,90
27,1,1,1,1.082845,91
27,1,1,1,1.302935,92
27,0,0,1,1.712744,93
27,1,1,1,NA,94
27,0,0,1,1.922792,95
27,1,1,1,1.61323,96
27,0,0,1,1.702502,97
27,1,1,1,1.393677,98
27,1,1,1,1.18125,99
27,0,0,1,1.493668,100
27,0,0,1,1.828692,101
27,0,1,0,NA,102
27,0,0,1,1.485446,103
27,1,1,1,1.505597,104
27,1,1,1,1.362608,105
27,1,1,1,1.178108,106
27,0,1,0,1.3088089999999999,107
27,0,0,1,1.497308,108
27,1,1,1,1.397064,109
27,1,1,1,2.398763,110
27,0,1,0,1.202529,111
27,0,0,1,1.515727,112
28,0,0,1,1.849153,1
28,0,0,1,1.183437,2
28,1,1,1,1.59983,3
28,1,1,1,1.188491,4
28,1,1,1,0.857769,5
28,1,1,1,1.095415,6
28,0,0,1,1.286635,7
28,1,1,1,1.270705,8
28,0,0,1,1.071093,9
28,1,1,1,1.167035,10
28,0,0,1,1.485136,11
28,1,1,1,1.181675,12
28,1,1,1,1.171809,13
28,1,1,1,0.981463,14
28,1,1,1,0.984255,15
28,0,0,1,1.512027,16
28,1,1,1,0.957754,17
28,0,0,1,1.61295,18
28,0,0,1,1.356389,19
28,0,0,1,2.190298,20
28,0,0,1,1.199738,21
28,0,0,1,0.988429,22
28,0,0,1,0.869756,23
28,1,1,1,1.403055,24
28,0,0,1,1.365676,25
28,0,0,1,1.263899,26
28,1,1,1,1.314044,27
28,0,0,1,1.276394,28
28,0,0,1,1.155125,29
28,1,1,1,1.495592,30
28,1,1,1,1.495928,31
28,1,1,1,1.095356,32
28,0,0,1,1.291929,33
28,0,0,1,1.584179,34
28,1,1,1,1.421361,35
28,0,0,1,2.708914,36
28,1,1,1,1.917566,37
28,1,1,1,1.19574,38
28,1,1,1,0.879098,39
28,1,1,1,0.873763,40
28,0,0,1,1.395,41
28,1,1,1,1.303352,42
28,1,1,1,1.816822,43
28,0,0,1,1.488242,44
28,0,0,1,1.068355,45
28,1,1,1,1.410395,46
28,0,0,1,2.217343,47
28,0,0,1,1.087098,48
28,0,0,1,1.404038,49
28,0,0,1,1.169355,50
28,0,0,1,2.172261,51
28,1,1,1,NA,52
28,0,0,1,1.385212,53
28,0,0,1,0.986484,54
28,0,0,1,1.088159,55
28,1,1,1,1.51602,56
28,0,0,1,1.371734,57
28,0,0,1,1.200139,58
28,1,1,1,1.613711,59
28,1,0,0,NA,60
28,1,1,1,1.287832,61
28,1,1,1,1.085332,62
28,0,0,1,1.611832,63
28,1,1,1,1.721282,64
28,1,1,1,0.983451,65
28,1,1,1,NA,66
28,1,1,1,NA,67
28,0,0,1,1.381137,68
28,1,1,1,1.608,69
28,1,1,1,1.187003,70
28,1,1,1,1.091009,71
28,1,1,1,1.303616,72
28,0,0,1,1.497649,73
28,0,0,1,1.597861,74
28,0,0,1,1.499462,75
28,0,0,1,1.063177,76
28,0,0,1,1.090586,77
28,0,0,1,1.096647,78
28,1,1,1,1.739996,79
28,1,1,1,0.985974,80
28,0,0,1,1.500547,81
28,0,0,1,1.092691,82
28,1,1,1,1.610135,83
28,1,1,1,1.490108,84
28,0,0,1,1.518691,85
28,1,1,1,NA,86
28,1,1,1,1.062756,87
28,1,1,1,1.527386,88
28,0,0,1,1.309289,89
28,0,0,1,0.987195,90
28,1,1,1,1.712521,91
28,1,1,1,0.836018,92
28,0,0,1,1.616354,93
28,0,0,1,2.243025,94
28,0,0,1,1.584381,95
28,1,1,1,1.491784,96
28,0,0,1,1.538823,97
28,0,0,1,1.406882,98
28,1,1,1,1.512646,99
28,1,1,1,1.07951,100
28,0,0,1,1.626761,101
28,1,1,1,1.933946,102
28,0,0,1,NA,103
28,1,1,1,2.602442,104
28,0,0,1,1.36587,105
28,1,1,1,1.281459,106
28,1,1,1,1.1624,107
28,1,1,1,1.077686,108
28,0,0,1,2.042181,109
28,0,0,1,1.196272,110
28,1,1,1,1.601584,111
28,0,0,1,1.737397,112
29,1,1,1,1.631879,1
29,0,0,1,1.583528,2
29,1,1,1,1.714098,3
29,0,0,1,1.283235,4
29,1,1,1,2.024289,5
29,1,1,1,2.261328,6
29,0,0,1,2.035292,7
29,0,0,1,1.174552,8
29,0,0,1,1.277962,9
29,1,1,1,2.100036,10
29,1,1,1,1.601065,11
29,0,0,1,1.486414,12
29,1,1,1,1.480754,13
29,1,1,1,2.322252,14
29,0,0,1,1.615078,15
29,0,0,1,1.189408,16
29,1,1,1,1.907498,17
29,1,1,1,1.397012,18
29,0,1,0,NA,19
29,0,0,1,1.372389,20
29,1,0,0,1.201661,21
29,1,0,0,2.568934,22
29,0,0,1,1.395599,23
29,0,0,1,1.084754,24
29,0,0,1,1.309807,25
29,1,1,1,1.490551,26
29,1,1,1,1.791228,27
29,1,1,1,1.590536,28
29,1,1,1,1.595432,29
29,0,0,1,1.179365,30
29,1,1,1,1.38566,31
29,0,0,1,1.284779,32
29,0,0,1,1.295823,33
29,0,0,1,2.703649,34
29,1,1,1,1.594436,35
29,0,0,1,1.091371,36
29,1,1,1,1.488366,37
29,1,1,1,NA,38
29,0,0,1,1.26857,39
29,0,0,1,1.801448,40
29,1,1,1,1.257941,41
29,0,0,1,1.2676,42
29,1,1,1,1.49433,43
29,1,1,1,1.701695,44
29,0,0,1,1.487254,45
29,1,1,1,2.595915,46
29,1,1,1,NA,47
29,1,1,1,NA,48
29,1,1,1,1.964461,49
29,1,1,1,1.6348,50
29,1,1,1,1.42459,51
29,0,0,1,1.833488,52
29,0,0,1,1.729998,53
29,0,0,1,1.094299,54
29,0,0,1,1.305707,55
29,1,1,1,1.401031,56
29,0,0,1,1.298594,57
29,0,1,0,1.718792,58
29,1,1,1,1.688689,59
29,0,1,0,1.38431,60
29,0,0,1,1.512051,61
29,0,0,1,1.298556,62
29,0,0,1,1.820765,63
29,1,1,1,1.602871,64
29,0,0,1,1.703979,65
29,0,0,1,1.373994,66
29,1,1,1,2.435314,67
29,0,0,1,1.304825,68
29,1,1,1,1.411573,69
29,1,1,1,NA,70
29,1,1,1,1.513568,71
29,0,0,1,1.602609,72
29,0,0,1,1.473335,73
29,1,1,1,1.710989,74
29,1,1,1,1.609243,75
29,1,1,1,1.936725,76
29,0,0,1,NA,77
29,0,0,1,1.365902,78
29,1,1,1,1.412016,79
29,0,0,1,1.494139,80
29,1,1,1,NA,81
29,0,0,1,1.175609,82
29,0,1,0,1.612544,83
29,0,0,1,1.401513,84
29,1,1,1,1.403122,85
29,1,1,1,2.247101,86
29,1,1,1,1.605879,87
29,0,0,1,1.297467,88
29,0,0,1,1.491378,89
29,0,0,1,1.403798,90
29,0,0,1,1.373081,91
29,0,0,1,1.512725,92
29,1,1,1,1.514566,93
29,1,1,1,1.495193,94
29,0,0,1,1.6306,95
29,1,1,1,2.012717,96
29,1,1,1,1.499832,97
29,0,0,1,1.302687,98
29,1,1,1,1.594804,99
29,0,0,1,NA,100
29,0,0,1,1.830045,101
29,1,1,1,1.620943,102
29,0,0,1,1.394059,103
29,0,0,1,NA,104
29,1,1,1,1.503051,105
29,1,1,1,1.916839,106
29,0,0,1,1.384221,107
29,1,1,1,2.112327,108
29,1,0,0,2.025897,109
29,0,0,1,1.596221,110
29,1,1,1,1.409257,111
29,1,0,0,NA,112
30,0,0,1,NA,1
30,1,1,1,1.719501,2
30,0,1,0,2.41819,3
30,0,0,1,1.504129,4
30,1,1,1,1.508027,5
30,0,0,1,2.174846,6
30,1,1,1,1.384774,7
30,0,0,1,1.718218,8
30,1,1,1,2.936311,9
30,1,1,1,1.28643,10
30,1,1,1,1.507501,11
30,0,0,1,1.626104,12
30,0,0,1,1.28037,13
30,0,0,1,1.407112,14
30,1,1,1,2.134068,15
30,1,1,1,1.847589,16
30,1,1,1,2.705417,17
30,0,0,1,1.612118,18
30,0,0,1,1.79585,19
30,0,0,1,1.299676,20
30,1,1,1,1.519952,21
30,0,0,1,1.830069,22
30,0,0,1,1.605028,23
30,0,0,1,1.576096,24
30,1,1,1,1.291969,25
30,1,1,1,1.198968,26
30,1,1,1,1.844994,27
30,0,0,1,1.61324,28
30,1,1,1,2.59678,29
30,0,0,1,1.399389,30
30,0,1,0,NA,31
30,1,1,1,1.839545,32
30,1,1,1,1.745624,33
30,0,0,1,1.425061,34
30,1,1,1,1.384526,35
30,0,0,1,1.492013,36
30,0,0,1,1.314199,37
30,1,1,1,1.398842,38
30,0,0,1,1.390071,39
30,1,1,1,1.832628,40
30,1,1,1,1.094317,41
30,1,1,1,1.639687,42
30,1,1,1,1.737477,43
30,1,1,1,1.200931,44
30,0,0,1,1.929366,45
30,0,0,1,1.622371,46
30,1,1,1,1.825108,47
30,1,1,1,NA,48
30,1,1,1,1.303621,49
30,1,1,1,1.751398,50
30,0,1,0,1.097911,51
30,1,1,1,1.09428,52
30,0,0,1,1.620798,53
30,0,0,1,1.51349,54
30,0,0,1,NA,55
30,0,0,1,2.680371,56
30,0,0,1,1.71316,57
30,0,0,1,1.403313,58
30,0,0,1,1.391327,59
30,0,0,1,2.700931,60
30,1,1,1,2.385507,61
30,1,1,1,1.642874,62
30,0,1,0,1.418245,63
30,0,0,1,2.041644,64
30,1,0,0,2.764014,65
30,0,0,1,2.270641,66
30,0,0,1,1.8244,67
30,1,1,1,2.258065,68
30,1,1,1,1.190781,69
30,0,0,1,1.613737,70
30,0,0,1,3.198347,71
30,0,1,0,2.898369,72
30,0,1,0,2.945811,73
30,1,1,1,1.20049,74
30,0,0,1,1.616454,75
30,0,0,1,2.008661,76
30,1,1,1,1.945171,77
30,0,0,1,3.034771,78
30,1,0,0,1.730201,79
30,0,0,1,1.616106,80
30,1,1,1,2.161796,81
30,1,1,1,1.509594,82
30,1,1,1,1.49131,83
30,1,1,1,1.627442,84
30,0,0,1,2.190165,85
30,1,1,1,2.490642,86
30,1,1,1,1.204774,87
30,1,1,1,1.395312,88
30,0,0,1,2.359813,89
30,0,0,1,1.507881,90
30,0,1,0,1.594273,91
30,1,1,1,1.203683,92
30,0,0,1,1.622116,93
30,1,1,1,1.506966,94
30,1,1,1,1.629309,95
30,0,0,1,1.478383,96
30,1,1,1,2.677357,97
30,1,1,1,1.748809,98
30,1,1,1,1.315267,99
30,1,1,1,1.308638,100
30,1,1,1,1.421779,101
30,1,1,1,1.750855,102
30,0,0,1,1.824926,103
30,0,0,1,1.512886,104
30,1,1,1,2.067704,105
30,1,1,1,1.413313,106
30,0,0,1,1.615096,107
30,0,0,1,1.412367,108
30,1,1,1,1.496772,109
30,0,0,1,1.605545,110
30,1,1,1,1.611372,111
30,0,0,1,2.055201,112
31,0,0,1,2.62736,1
31,1,0,0,1.304954,2
31,0,0,1,0.987227,3
31,1,1,1,1.606965,4
31,1,1,1,1.284626,5
31,1,1,1,0.982658,6
31,0,0,1,1.279076,7
31,0,1,0,1.7374,8
31,1,1,1,1.091485,9
31,0,0,1,1.818652,10
31,0,1,0,1.395433,11
31,0,1,0,0.986506,12
31,1,0,0,1.527178,13
31,0,0,1,0.985744,14
31,1,1,1,1.7346,15
31,0,0,1,1.59275,16
31,1,1,1,1.165929,17
31,0,0,1,1.693877,18
31,0,0,1,1.09116,19
31,1,1,1,2.042813,20
31,1,1,1,NA,21
31,1,1,1,1.709544,22
31,1,1,1,0.8727,23
31,0,0,1,1.070091,24
31,1,1,1,1.18049,25
31,0,0,1,1.182556,26
31,1,1,1,1.306872,27
31,0,1,0,1.284258,28
31,0,0,1,1.571199,29
31,1,1,1,1.282547,30
31,1,1,1,0.976665,31
31,0,0,1,1.18317,32
31,0,0,1,1.204777,33
31,0,0,1,1.088161,34
31,1,1,1,1.39978,35
31,0,0,1,1.166663,36
31,0,1,0,1.166275,37
31,0,0,1,1.162772,38
31,0,0,1,1.077097,39
31,1,1,1,1.603235,40
31,1,1,1,1.586116,41
31,0,0,1,1.772011,42
31,1,0,0,1.508578,43
31,1,1,1,1.923841,44
31,1,1,1,1.553623,45
31,1,1,1,1.084425,46
31,1,1,1,0.982338,47
31,0,0,1,1.609136,48
31,1,1,1,1.493182,49
31,1,1,1,1.187107,50
31,0,0,1,1.59899,51
31,0,0,1,1.812194,52
31,1,1,1,1.19354,53
31,1,1,1,1.459639,54
31,0,0,1,1.488894,55
31,0,0,1,1.509991,56
31,0,0,1,2.536454,57
31,1,1,1,1.599355,58
31,0,0,1,1.379237,59
31,0,0,1,1.494261,60
31,0,1,0,1.927706,61
31,0,1,0,1.496822,62
31,1,1,1,0.978497,63
31,1,0,0,1.928143,64
31,1,1,1,1.896979,65
31,1,1,1,1.097132,66
31,0,1,0,1.482922,67
31,0,0,1,1.28858,68
31,0,0,1,2.128615,69
31,0,1,0,1.520116,70
31,1,1,1,1.711363,71
31,0,1,0,1.080816,72
31,1,1,1,1.091711,73
31,1,1,1,1.301897,74
31,1,1,1,0.972778,75
31,0,0,1,1.285786,76
31,1,0,0,1.089545,77
31,1,1,1,1.518243,78
31,1,1,1,1.378517,79
31,0,1,0,NA,80
31,0,0,1,1.48567,81
31,1,1,1,1.28837,82
31,0,0,1,1.285436,83
31,0,0,1,0.865111,84
31,1,1,1,1.719618,85
31,0,0,1,1.276666,86
31,1,0,0,1.053699,87
31,1,1,1,1.513722,88
31,1,1,1,1.078476,89
31,1,1,1,1.169758,90
31,0,1,0,1.172566,91
31,1,1,1,1.073864,92
31,1,1,1,1.312353,93
31,0,0,1,1.29914,94
31,1,1,1,1.409274,95
31,0,0,1,1.732738,96
31,1,1,1,1.0781,97
31,0,1,0,1.062785,98
31,0,1,0,1.412035,99
31,1,0,0,1.716797,100
31,1,0,0,1.203733,101
31,0,0,1,1.077121,102
31,0,0,1,1.814974,103
31,1,1,1,1.408512,104
31,0,0,1,1.498269,105
31,0,1,0,1.407042,106
31,0,1,0,NA,107
31,0,0,1,1.058721,108
31,1,1,1,1.411243,109
31,1,1,1,1.93382,110
31,1,0,0,1.735073,111
31,0,0,1,1.202651,112
32,1,1,1,NA,1
32,0,0,1,1.486368,2
32,1,1,1,2.03419,3
32,0,0,1,1.59539,4
32,0,0,1,0.959223,5
32,0,0,1,1.097833,6
32,0,0,1,1.086071,7
32,1,1,1,1.513963,8
32,1,1,1,1.288078,9
32,1,1,1,1.312755,10
32,1,1,1,1.298029,11
32,1,1,1,0.986704,12
32,0,1,0,1.194467,13
32,1,1,1,0.987285,14
32,0,0,1,1.927089,15
32,1,1,1,1.375675,16
32,0,0,1,1.390035,17
32,1,1,1,1.698928,18
32,1,1,1,1.091362,19
32,1,1,1,0.985892,20
32,0,0,1,1.504758,21
32,1,1,1,1.278822,22
32,0,1,0,1.094286,23
32,1,1,1,1.406286,24
32,1,1,1,1.305907,25
32,0,0,1,1.398342,26
32,0,0,1,1.285152,27
32,1,1,1,1.281119,28
32,0,0,1,1.391434,29
32,0,0,1,NA,30
32,0,0,1,0.985987,31
32,0,0,1,1.208127,32
32,1,1,1,1.517211,33
32,0,0,1,1.408451,34
32,0,1,0,1.366253,35
32,1,1,1,1.058556,36
32,0,0,1,2.172852,37
32,1,1,1,1.509771,38
32,1,1,1,1.094231,39
32,1,1,1,1.196329,40
32,0,0,1,1.498995,41
32,1,1,1,1.285441,42
32,1,1,1,0.980886,43
32,0,0,1,1.496212,44
32,1,1,1,1.055356,45
32,0,1,0,0.979094,46
32,1,1,1,1.204904,47
32,1,1,1,0.982276,48
32,0,0,1,1.599843,49
32,0,1,0,1.164314,50
32,0,0,1,1.377161,51
32,1,1,1,1.159459,52
32,1,1,1,1.290297,53
32,0,0,1,1.28474,54
32,0,1,0,NA,55
32,0,0,1,1.513876,56
32,0,1,0,1.535013,57
32,0,0,1,1.606267,58
32,1,1,1,1.293833,59
32,0,0,1,1.387378,60
32,0,0,1,1.679362,61
32,1,1,1,1.501014,62
32,1,1,1,1.096705,63
32,1,1,1,0.985797,64
32,0,0,1,1.417664,65
32,0,0,1,1.581714,66
32,0,1,0,1.403215,67
32,0,0,1,2.123485,68
32,1,1,1,1.271428,69
32,0,0,1,1.383505,70
32,1,1,1,1.263949,71
32,1,1,1,1.303765,72
32,1,1,1,1.094595,73
32,0,1,0,1.197117,74
32,0,0,1,1.507923,75
32,0,0,1,1.518328,76
32,0,0,1,1.356033,77
32,1,1,1,1.272877,78
32,0,0,1,1.256286,79
32,1,1,1,1.070294,80
32,0,0,1,1.615128,81
32,0,0,1,2.214924,82
32,0,0,1,1.661832,83
32,0,0,1,1.496776,84
32,0,0,1,1.590147,85
32,1,1,1,1.490584,86
32,0,0,1,1.52009,87
32,1,1,1,1.084453,88
32,0,1,0,1.754607,89
32,1,1,1,1.087138,90
32,1,1,1,1.087071,91
32,0,0,1,1.808234,92
32,1,1,1,1.788585,93
32,1,1,1,1.41818,94
32,1,1,1,1.090445,95
32,1,1,1,1.193274,96
32,0,0,1,2.368546,97
32,0,1,0,1.377641,98
32,1,1,1,1.096488,99
32,1,1,1,1.097074,100
32,1,1,1,0.986182,101
32,1,0,0,1.401812,102
32,1,1,1,1.524248,103
32,1,1,1,1.096082,104
32,0,0,1,1.602041,105
32,1,1,1,1.282669,106
32,0,0,1,1.275926,107
32,0,0,1,NA,108
32,0,0,1,1.083327,109
32,1,1,1,1.825273,110
32,1,1,1,0.988065,111
32,1,1,1,1.205254,112
33,0,0,1,2.141287,1
33,0,0,1,1.525868,2
33,0,1,0,NA,3
33,0,0,1,1.336038,4
33,1,0,0,3.654264,5
33,1,0,0,1.414827,6
33,1,1,1,2.027171,7
33,0,0,1,1.06275,8
33,0,0,1,1.084023,9
33,0,0,1,1.193538,10
33,1,1,1,1.604804,11
33,1,1,1,NA,12
33,1,1,1,1.306358,13
33,0,0,1,1.491624,14
33,1,1,1,1.607114,15
33,0,1,0,2.268448,16
33,0,0,1,1.614653,17
33,0,0,1,1.695286,18
33,0,1,0,1.911413,19
33,0,1,0,1.242903,20
33,1,1,1,1.637198,21
33,0,0,1,1.501019,22
33,1,1,1,1.495035,23
33,1,1,1,1.411301,24
33,0,0,1,1.711067,25
33,0,0,1,1.193129,26
33,0,0,1,1.197262,27
33,1,0,0,1.193338,28
33,1,0,0,3.112611,29
33,1,1,1,1.734832,30
33,1,1,1,0.986212,31
33,0,1,0,2.082051,32
33,1,1,1,0.978602,33
33,0,0,1,1.497536,34
33,1,1,1,1.610973,35
33,0,0,1,1.395423,36
33,0,0,1,2.101739,37
33,1,1,1,1.600403,38
33,1,1,1,1.737084,39
33,1,1,1,0.981105,40
33,0,0,1,1.480933,41
33,0,0,1,NA,42
33,1,0,0,NA,43
33,1,1,1,NA,44
33,1,0,0,NA,45
33,0,1,0,NA,46
33,1,0,0,NA,47
33,1,0,0,3.461431,48
33,1,0,0,3.581442,49
33,0,0,1,1.089038,50
33,1,0,0,0.981176,51
33,1,1,1,1.604903,52
33,1,1,1,1.797822,53
33,0,1,0,0.868794,54
33,0,1,0,0.977437,55
33,0,1,0,1.18477,56
33,0,0,1,1.599886,57
33,0,1,0,1.603027,58
33,0,1,0,1.083254,59
33,0,0,1,1.49522,60
33,0,0,1,1.89104,61
33,0,0,1,0.980426,62
33,0,0,1,1.311717,63
33,1,1,1,2.152246,64
33,1,0,0,1.728045,65
33,0,0,1,1.083495,66
33,0,0,1,0.977319,67
33,1,1,1,1.621402,68
33,0,1,0,0.868555,69
33,1,1,1,1.097917,70
33,0,0,1,2.685674,71
33,0,0,1,0.979604,72
33,1,1,1,1.516932,73
33,0,0,1,1.594304,74
33,0,0,1,1.427036,75
33,0,0,1,1.08647,76
33,1,1,1,1.611274,77
33,1,1,1,1.191793,78
33,1,1,1,1.751023,79
33,0,0,1,NA,80
33,0,0,1,0.848352,81
33,1,0,0,0.954895,82
33,0,0,1,0.976399,83
33,1,1,1,1.588614,84
33,1,1,1,0.988115,85
33,1,0,0,1.509888,86
33,1,0,0,1.635879,87
33,1,0,0,1.193851,88
33,1,0,0,1.097024,89
33,1,1,1,1.284761,90
33,0,0,1,1.617993,91
33,0,0,1,1.709957,92
33,1,0,0,0.98579,93
33,1,1,1,1.696935,94
33,0,0,1,2.169836,95
33,0,1,0,2.140623,96
33,1,1,1,2.621712,97
33,1,1,1,2.668765,98
33,0,0,1,1.825897,99
33,0,1,0,1.930359,100
33,1,1,1,1.078923,101
33,0,1,0,2.349789,102
33,1,1,1,1.424889,103
33,0,0,1,1.514221,104
33,1,0,0,1.186804,105
33,1,1,1,2.240373,106
33,1,1,1,1.298582,107
33,0,1,0,1.643524,108
33,1,1,1,0.977116,109
33,1,1,1,1.313553,110
33,1,0,0,1.823967,111
33,0,0,1,1.087027,112
34,1,0,0,NA,1
34,1,1,1,1.377011,2
34,1,1,1,1.710055,3
34,1,1,1,1.088112,4
34,1,1,1,0.985153,5
34,1,1,1,1.184986,6
34,1,1,1,NA,7
34,1,1,1,1.198094,8
34,0,0,1,1.594227,9
34,1,1,1,1.395159,10
34,0,0,1,1.368909,11
34,1,1,1,1.393813,12
34,0,0,1,1.461087,13
34,1,1,1,2.049791,14
34,0,0,1,1.629406,15
34,0,0,1,1.076367,16
34,1,1,1,2.047799,17
34,0,0,1,1.700465,18
34,1,1,1,1.63029,19
34,0,0,1,1.367957,20
34,1,1,1,2.499728,21
34,0,0,1,2.26873,22
34,0,1,0,2.179876,23
34,1,1,1,1.570202,24
34,1,1,1,1.091761,25
34,1,1,1,1.076718,26
34,0,1,0,0.984016,27
34,0,0,1,2.487361,28
34,1,1,1,1.58858,29
34,1,1,1,1.53016,30
34,0,0,1,1.419795,31
34,1,1,1,NA,32
34,0,0,1,1.461486,33
34,0,0,1,1.506476,34
34,0,1,0,NA,35
34,1,1,1,1.597514,36
34,0,1,0,1.971508,37
34,1,1,1,1.202527,38
34,0,0,1,1.491773,39
34,1,1,1,1.92159,40
34,0,0,1,1.474338,41
34,0,0,1,NA,42
34,0,0,1,1.098289,43
34,1,0,0,1.939766,44
34,0,0,1,1.079954,45
34,0,1,0,1.616361,46
34,0,0,1,1.394335,47
34,0,0,1,1.280026,48
34,0,0,1,1.420222,49
34,0,0,1,1.21321,50
34,0,0,1,0.997218,51
34,1,1,1,1.828986,52
34,1,1,1,1.706636,53
34,0,0,1,1.670256,54
34,0,0,1,1.512371,55
34,1,1,1,NA,56
34,0,0,1,2.015695,57
34,1,1,1,1.608006,58
34,1,1,1,1.605127,59
34,1,1,1,1.080493,60
34,1,0,0,1.673607,61
34,0,0,1,1.349823,62
34,1,1,1,1.68121,63
34,0,0,1,1.863791,64
34,1,1,1,1.407347,65
34,0,0,1,1.588967,66
34,1,1,1,1.468942,67
34,1,1,1,1.49258,68
34,1,1,1,1.110376,69
34,0,0,1,1.507493,70
34,1,1,1,NA,71
34,0,1,0,1.497656,72
34,0,0,1,1.58878,73
34,0,0,1,2.18803,74
34,0,1,0,1.724419,75
34,0,0,1,1.934297,76
34,1,1,1,NA,77
34,1,1,1,1.092916,78
34,1,1,1,1.304635,79
34,1,1,1,1.289348,80
34,0,0,1,1.408787,81
34,0,0,1,1.311361,82
34,1,1,1,1.62457,83
34,0,0,1,1.835141,84
34,0,1,0,1.81788,85
34,0,0,1,1.37565,86
34,1,1,1,1.404449,87
34,1,1,1,1.305931,88
34,0,1,0,1.413245,89
34,1,1,1,1.097737,90
34,1,1,1,1.09687,91
34,0,1,0,1.200531,92
34,1,1,1,1.17284,93
34,0,1,0,1.642844,94
34,1,1,1,1.40826,95
34,1,1,1,1.098036,96
34,1,1,1,1.319368,97
34,1,1,1,1.423017,98
34,0,0,1,2.266107,99
34,1,1,1,1.529908,100
34,0,1,0,1.194916,101
34,0,0,1,1.6139540000000001,102
34,0,0,1,1.303126,103
34,0,0,1,1.724564,104
34,1,0,0,2.021412,105
34,0,1,0,1.196668,106
34,1,1,1,1.199138,107
34,0,0,1,1.715346,108
34,1,1,1,1.397647,109
34,1,1,1,1.305506,110
34,0,0,1,1.814967,111
34,0,0,1,1.309105,112
35,0,0,1,2.463422,1
35,1,1,1,1.815196,2
35,0,0,1,1.491017,3
35,0,0,1,0.961683,4
35,1,1,1,1.729513,5
35,1,1,1,2.531705,6
35,1,1,1,1.189292,7
35,0,0,1,1.377569,8
35,1,1,1,1.711984,9
35,0,0,1,1.273886,10
35,1,1,1,1.829835,11
35,1,0,0,1.594856,12
35,0,1,0,NA,13
35,0,0,1,1.250956,14
35,0,0,1,0.998346,15
35,0,0,1,0.985982,16
35,0,0,1,0.861887,17
35,1,1,1,1.502688,18
35,0,0,1,1.356266,19
35,0,0,1,1.274581,20
35,1,1,1,1.713785,21
35,1,1,1,1.193568,22
35,1,1,1,0.99528,23
35,0,0,1,1.380545,24
35,1,1,1,1.593724,25
35,1,1,1,1.376801,26
35,1,1,1,1.391014,27
35,0,0,1,1.283834,28
35,1,1,1,1.835438,29
35,1,1,1,1.60035,30
35,0,0,1,1.49202,31
35,0,0,1,1.404545,32
35,0,0,1,0.873712,33
35,0,0,1,0.866359,34
35,0,0,1,0.884872,35
35,1,1,1,1.394741,36
35,0,0,1,1.29327,37
35,0,0,1,0.772397,38
35,1,1,1,2.244998,39
35,1,1,1,1.398107,40
35,0,0,1,1.502761,41
35,0,0,1,0.969192,42
35,0,0,1,0.971474,43
35,1,1,1,1.509475,44
35,0,0,1,1.181588,45
35,1,1,1,1.822852,46
35,1,1,1,1.175713,47
35,0,0,1,1.403715,48
35,1,1,1,1.884183,49
35,0,0,1,1.170423,50
35,0,0,1,0.976442,51
35,0,0,1,0.98168,52
35,0,0,1,0.866721,53
35,0,0,1,0.871842,54
35,0,0,1,0.985771,55
35,1,1,1,1.492691,56
35,1,1,1,1.060106,57
35,1,1,1,1.190314,58
35,0,0,1,1.276858,59
35,1,1,1,1.592901,60
35,0,0,1,1.157199,61
35,0,0,1,1.200335,62
35,1,1,1,1.831374,63
35,0,0,1,1.489397,64
35,1,0,0,1.754872,65
35,1,0,0,1.074781,66
35,1,1,1,2.468096,67
35,1,1,1,1.705776,68
35,0,0,1,1.268066,69
35,1,1,1,1.377754,70
35,1,1,1,1.183375,71
35,1,1,1,1.10997,72
35,1,1,1,0.983248,73
35,1,0,0,1.385389,74
35,1,1,1,1.623848,75
35,0,0,1,1.416261,76
35,1,1,1,1.500095,77
35,1,0,0,0.958289,78
35,1,1,1,1.902102,79
35,1,1,1,1.102036,80
35,0,0,1,1.398606,81
35,0,0,1,0.880731,82
35,1,1,1,1.503152,83
35,1,1,1,0.994556,84
35,0,0,1,1.724698,85
35,1,1,1,1.841181,86
35,0,0,1,1.288234,87
35,0,0,1,1.35165,88
35,0,0,1,0.991787,89
35,0,0,1,0.849802,90
35,0,0,1,0.977308,91
35,1,1,1,1.495179,92
35,1,1,1,1.089678,93
35,0,0,1,1.398692,94
35,1,1,1,1.596804,95
35,0,0,1,NA,96
35,0,0,1,1.087326,97
35,1,1,1,1.506316,98
35,1,1,1,0.97280199999999994,99
35,1,1,1,1.203848,100
35,0,0,1,1.498508,101
35,1,1,1,2.175375,102
35,1,1,1,2.698391,103
35,0,1,0,NA,104
35,1,1,1,1.765161,105
35,1,1,1,1.054164,106
35,0,0,1,1.391519,107
35,0,0,1,0.979909,108
35,1,1,1,1.513141,109
35,0,0,1,1.396901,110
35,0,0,1,1.091181,111
35,0,0,1,1.117293,112
36,0,0,1,1.722397,1
36,1,1,1,1.708026,2
36,0,0,1,1.271187,3
36,0,0,1,1.384451,4
36,0,0,1,1.084604,5
36,1,1,1,2.032642,6
36,1,1,1,1.285056,7
36,0,0,1,1.060872,8
36,0,0,1,1.088094,9
36,0,0,1,0.975376,10
36,1,1,1,1.297473,11
36,1,1,1,1.179918,12
36,1,1,1,1.340019,13
36,0,0,1,1.50271,14
36,0,0,1,1.262596,15
36,1,1,1,1.271122,16
36,1,1,1,1.164122,17
36,0,0,1,1.460438,18
36,1,1,1,1.165908,19
36,1,1,1,1.383539,20
36,0,0,1,1.50376,21
36,1,1,1,1.162239,22
36,0,0,1,1.362047,23
36,1,1,1,1.074147,24
36,0,0,1,1.460966,25
36,1,1,1,1.192697,26
36,0,0,1,1.05069,27
36,1,1,1,2.128466,28
36,0,0,1,1.165145,29
36,1,1,1,1.621513,30
36,0,0,1,1.075606,31
36,0,0,1,1.100798,32
36,0,0,1,1.310261,33
36,1,1,1,1.718747,34
36,0,0,1,1.065093,35
36,1,1,1,1.297061,36
36,0,0,1,1.067765,37
36,1,1,1,2.031964,38
36,0,0,1,1.177589,39
36,0,0,1,0.987701,40
36,1,1,1,1.962915,41
36,1,1,1,1.455323,42
36,1,1,1,1.468234,43
36,0,0,1,1.158903,44
36,0,1,0,1.305732,45
36,0,0,1,1.079579,46
36,0,0,1,NA,47
36,0,0,1,1.165205,48
36,0,0,1,1.502237,49
36,1,1,1,1.729471,50
36,1,1,1,1.821715,51
36,1,1,1,0.986767,52
36,0,1,0,1.217371,53
36,1,1,1,1.89056,54
36,1,1,1,1.2199,55
36,0,0,1,1.496225,56
36,1,1,1,1.387379,57
36,0,0,1,1.412566,58
36,0,0,1,1.282145,59
36,0,0,1,1.40099,60
36,1,1,1,1.405882,61
36,0,0,1,1.076996,62
36,0,0,1,1.273519,63
36,0,0,1,1.075054,64
36,0,0,1,1.075626,65
36,1,1,1,1.408603,66
36,0,0,1,0.981142,67
36,1,1,1,1.187618,68
36,0,0,1,1.102652,69
36,0,0,1,1.079508,70
36,1,1,1,1.942415,71
36,0,0,1,1.081855,72
36,1,1,1,2.348392,73
36,1,1,1,1.371307,74
36,1,1,1,1.270364,75
36,1,1,1,1.176048,76
36,0,1,0,1.073554,77
36,0,0,1,1.386511,78
36,1,1,1,1.379875,79
36,0,0,1,1.384699,80
36,1,1,1,1.604151,81
36,0,0,1,1.570733,82
36,1,1,1,1.593098,83
36,0,0,1,1.612711,84
36,0,0,1,2.227854,85
36,1,1,1,1.300238,86
36,0,0,1,1.402402,87
36,1,1,1,1.517902,88
36,0,0,1,1.510799,89
36,1,1,1,1.72259,90
36,0,0,1,1.171396,91
36,0,0,1,1.097827,92
36,0,0,1,1.088765,93
36,1,1,1,1.400343,94
36,1,1,1,1.096755,95
36,1,1,1,1.419461,96
36,1,1,1,1.08941,97
36,0,0,1,1.82189,98
36,1,1,1,1.074465,99
36,1,1,1,1.294568,100
36,1,1,1,1.214804,101
36,0,1,0,0.987747,102
36,1,1,1,1.469695,103
36,1,1,1,0.976608,104
36,1,1,1,1.188122,105
36,1,1,1,1.086509,106
36,1,1,1,0.877282,107
36,1,1,1,0.972366,108
36,1,1,1,1.073508,109
36,1,1,1,0.981356,110
36,0,0,1,1.712303,111
36,0,0,1,1.509067,112
37,0,0,1,2.119912,1
37,1,0,0,1.219361,2
37,1,1,1,2.130385,3
37,1,1,1,1.20125,4
37,0,0,1,1.611007,5
37,0,0,1,1.203286,6
37,1,0,0,1.208933,7
37,0,0,1,0.996737,8
37,1,1,1,4.571845,9
37,0,0,1,1.809466,10
37,1,1,1,1.711871,11
37,1,1,1,1.504844,12
37,1,1,1,0.976287,13
37,0,1,0,1.038514,14
37,1,1,1,1.590155,15
37,1,1,1,1.460722,16
37,0,0,1,1.10171,17
37,0,0,1,1.200103,18
37,1,0,0,0.984133,19
37,1,1,1,1.492886,20
37,0,1,0,0.532964,21
37,1,0,0,0.649352,22
37,0,0,1,0.641103,23
37,0,1,0,0.853988,24
37,0,1,0,0.545044,25
37,0,1,0,0.105631,26
37,0,1,0,0.11616,27
37,1,0,0,0.66116,28
37,0,0,1,0.538506,29
37,1,0,0,0.539926,30
37,1,0,0,4.047772,31
37,0,0,1,0.110661,32
37,1,0,0,0.10193,33
37,1,0,0,0.247687,34
37,0,0,1,0.107677,35
37,0,0,1,0.227832,36
37,0,1,0,0.878362,37
37,1,1,1,0.545955,38
37,0,1,0,0.102299,39
37,1,1,1,0.649942,40
37,0,1,0,0.107501,41
37,1,1,1,0.210948,42
37,0,1,0,0.103382,43
37,1,0,0,1.669737,44
37,0,0,1,0.106603,45
37,1,0,0,0.231282,46
37,0,0,1,0.657027,47
37,1,0,0,0.543837,48
37,1,1,1,1.396506,49
37,0,1,0,0.538245,50
37,1,1,1,0.643389,51
37,1,0,0,1.07146,52
37,0,0,1,0.542191,53
37,0,0,1,0.646396,54
37,0,0,1,0.631278,55
37,1,1,1,3.792549,56
37,1,0,0,0.858266,57
37,1,0,0,0.639391,58
37,1,0,0,0.756662,59
37,1,1,1,1.082172,60
37,1,1,1,0.64958,61
37,0,1,0,0.105936,62
37,0,1,0,0.273055,63
37,1,1,1,5.024688,64
37,1,1,1,0.647496,65
37,0,1,0,0.106165,66
37,0,1,0,0.269707,67
37,1,0,0,0.655374,68
37,0,0,1,0.641814,69
37,0,0,1,0.653386,70
37,0,0,1,0.107942,71
37,1,0,0,0.238168,72
37,0,0,1,0.22077,73
37,0,0,1,0.236809,74
37,0,1,0,2.886095,75
37,1,1,1,1.65227,76
37,1,1,1,0.660374,77
37,1,1,1,0.108474,78
37,0,1,0,0.28233,79
37,0,0,1,3.480818,80
37,0,0,1,0.660209,81
37,1,0,0,0.657097,82
37,1,0,0,0.648046,83
37,1,0,0,0.657707,84
37,0,0,1,0.102004,85
37,0,0,1,0.289492,86
37,1,1,1,0.794742,87
37,1,1,1,0.657596,88
37,0,1,0,0.747674,89
37,0,1,0,0.656422,90
37,0,1,0,0.657921,91
37,1,1,1,0.657189,92
37,1,1,1,1.518741,93
37,0,1,0,0.65843,94
37,1,0,0,1.489636,95
37,1,0,0,0.654385,96
37,0,0,1,0.109108,97
37,0,0,1,0.309509,98
37,1,0,0,1.290657,99
37,0,0,1,2.94593,100
37,1,1,1,0.873921,101
37,1,1,1,0.760093,102
37,0,1,0,0.107492,103
37,0,1,0,0.312512,104
37,1,1,1,0.312092,105
37,0,1,0,0.850815,106
37,1,0,0,1.092441,107
37,0,0,1,1.094046,108
37,0,0,1,0.765973,109
37,1,0,0,1.740754,110
37,1,0,0,2.093208,111
37,0,0,1,0.755513,112
38,1,1,1,2.715426,1
38,0,0,1,1.406116,2
38,1,1,1,1.829832,3
38,1,1,1,2.203434,4
38,1,1,1,1.501842,5
38,0,0,1,1.509638,6
38,1,0,0,NA,7
38,1,1,1,2.05697,8
38,0,0,1,1.508164,9
38,1,1,1,1.635402,10
38,0,0,1,1.786631,11
38,0,0,1,1.722738,12
38,1,1,1,NA,13
38,0,0,1,1.507793,14
38,0,0,1,1.182577,15
38,0,0,1,1.200926,16
38,0,0,1,1.21221,17
38,1,1,1,1.831064,18
38,0,0,1,1.477489,19
38,0,0,1,1.363862,20
38,0,0,1,1.62143,21
38,0,0,1,1.301481,22
38,0,0,1,1.31747,23
38,0,1,0,1.832577,24
38,1,1,1,NA,25
38,1,1,1,1.79789,26
38,0,0,1,1.721619,27
38,0,0,1,1.929204,28
38,1,1,1,1.921691,29
38,1,1,1,2.195662,30
38,0,0,1,1.709227,31
38,0,0,1,1.817418,32
38,0,0,1,1.617071,33
38,0,1,0,1.632778,34
38,0,0,1,1.708559,35
38,1,1,1,1.483327,36
38,0,0,1,1.499348,37
38,1,1,1,1.590139,38
38,0,0,1,NA,39
38,1,1,1,2.034082,40
38,1,1,1,1.909442,41
38,1,1,1,1.643702,42
38,0,0,1,1.616237,43
38,1,1,1,1.958108,44
38,1,1,1,1.718296,45
38,0,0,1,2.476147,46
38,0,0,1,1.691564,47
38,1,1,1,1.814673,48
38,1,1,1,1.602688,49
38,0,0,1,1.479751,50
38,0,0,1,1.604914,51
38,1,1,1,1.592487,52
38,0,0,1,2.405802,53
38,0,0,1,1.613412,54
38,1,1,1,NA,55
38,1,1,1,1.940129,56
38,1,1,1,1.646604,57
38,0,1,0,1.434531,58
38,1,1,1,1.208678,59
38,1,0,0,1.620443,60
38,1,1,1,1.803227,61
38,0,0,1,1.582586,62
38,1,1,1,1.717577,63
38,1,1,1,1.504555,64
38,0,0,1,1.762959,65
38,1,1,1,1.933133,66
38,1,1,1,1.539718,67
38,1,1,1,1.294768,68
38,0,0,1,NA,69
38,1,1,1,2.217411,70
38,1,1,1,2.39571,71
38,1,1,1,1.528987,72
38,1,1,1,1.312129,73
38,1,1,1,1.311,74
38,0,1,0,1.535547,75
38,0,0,1,2.025498,76
38,1,1,1,NA,77
38,0,0,1,1.718327,78
38,0,0,1,1.195924,79
38,1,1,1,1.845956,80
38,1,1,1,1.581739,81
38,0,0,1,1.600768,82
38,0,0,1,2.144645,83
38,1,1,1,1.809748,84
38,1,1,1,1.522816,85
38,0,0,1,2.371532,86
38,1,1,1,1.504139,87
38,1,1,1,1.186781,88
38,1,1,1,1.3178,89
38,0,0,1,1.824661,90
38,0,0,1,NA,91
38,0,1,0,2.817555,92
38,1,1,1,NA,93
38,0,1,0,1.627508,94
38,0,0,1,1.836476,95
38,0,0,1,1.52108,96
38,0,1,0,1.823779,97
38,1,1,1,1.170158,98
38,0,1,0,NA,99
38,1,1,1,1.509223,100
38,0,0,1,1.744625,101
38,1,1,1,1.745243,102
38,0,0,1,1.841989,103
38,0,0,1,2.019645,104
38,0,0,1,2.161535,105
38,0,1,0,1.841459,106
38,1,1,1,1.598112,107
38,1,1,1,1.488124,108
38,1,1,1,1.605535,109
38,1,1,1,2.039397,110
38,0,0,1,2.475084,111
38,1,0,0,NA,112
39,0,0,1,2.655416,1
39,0,0,1,1.754919,2
39,1,1,1,2.041437,3
39,1,1,1,NA,4
39,0,1,0,2.50652,5
39,0,0,1,1.621512,6
39,0,0,1,1.63823,7
39,1,1,1,1.811172,8
39,1,1,1,1.306671,9
39,1,1,1,1.205447,10
39,0,1,0,1.193182,11
39,0,1,0,1.185394,12
39,0,1,0,1.311414,13
39,0,0,1,1.590754,14
39,0,0,1,1.578206,15
39,0,0,1,1.787179,16
39,1,1,1,1.92497,17
39,1,1,1,1.316566,18
39,1,1,1,1.418526,19
39,1,1,1,1.303083,20
39,0,0,1,1.721291,21
39,1,1,1,2.24815,22
39,1,1,1,1.304933,23
39,0,0,1,1.740234,24
39,1,1,1,1.832045,25
39,1,1,1,1.307448,26
39,0,0,1,1.696539,27
39,0,0,1,1.295558,28
39,0,1,0,1.713545,29
39,0,0,1,1.82336,30
39,1,0,0,1.304144,31
39,1,1,1,1.71232,32
39,0,0,1,NA,33
39,1,1,1,1.725373,34
39,0,0,1,1.733317,35
39,1,1,1,NA,36
39,1,1,1,1.526562,37
39,1,1,1,1.41233,38
39,0,0,1,1.621303,39
39,1,1,1,1.822292,40
39,0,0,1,1.829886,41
39,0,0,1,1.663219,42
39,0,0,1,1.4217360000000001,43
39,0,0,1,1.419775,44
39,1,1,1,1.92876,45
39,1,1,1,1.491673,46
39,0,0,1,1.601306,47
39,0,1,0,2.039951,48
39,1,1,1,1.822515,49
39,0,1,0,1.413847,50
39,1,1,1,1.429689,51
39,0,0,1,1.714021,52
39,1,1,1,1.949235,53
39,0,0,1,1.708746,54
39,1,1,1,1.789002,55
39,0,0,1,1.392255,56
39,1,1,1,1.714957,57
39,0,0,1,1.832322,58
39,0,0,1,2.34163,59
39,0,0,1,1.403426,60
39,1,1,1,1.836532,61
39,1,1,1,1.537083,62
39,0,0,1,1.852692,63
39,0,0,1,1.620781,64
39,0,0,1,1.825982,65
39,1,1,1,2.044943,66
39,1,1,1,1.643643,67
39,0,0,1,2.152164,68
39,1,1,1,1.9237899999999999,69
39,0,0,1,1.952435,70
39,0,0,1,1.831996,71
39,0,1,0,1.726954,72
39,1,1,1,1.810217,73
39,1,1,1,1.423211,74
39,0,1,0,1.318904,75
39,0,1,0,1.647334,76
39,1,1,1,1.52667,77
39,1,1,1,1.635493,78
39,1,1,1,1.420631,79
39,0,1,0,1.41108,80
39,1,1,1,1.314577,81
39,1,1,1,1.303467,82
39,1,1,1,1.424073,83
39,0,1,0,1.31538,84
39,1,1,1,1.311467,85
39,1,1,1,1.286152,86
39,1,0,0,2.053848,87
39,0,0,1,2.055778,88
39,0,0,1,1.427442,89
39,1,1,1,1.938968,90
39,1,1,1,1.524842,91
39,1,1,1,1.63649,92
39,1,1,1,1.52515,93
39,1,1,1,1.412878,94
39,1,1,1,1.315939,95
39,0,0,1,2.14273,96
39,1,1,1,1.933013,97
39,1,1,1,1.410871,98
39,1,1,1,1.533429,99
39,0,1,0,1.415475,100
39,0,1,0,1.191288,101
39,1,1,1,1.850718,102
39,0,1,0,1.750855,103
39,0,1,0,1.524357,104
39,1,1,1,1.523654,105
39,0,0,1,2.057434,106
39,1,1,1,1.92196,107
39,0,0,1,2.049533,108
39,0,0,1,1.421442,109
39,0,1,0,2.597962,110
39,0,0,1,1.918946,111
39,1,1,1,1.968155,112
40,0,0,1,1.52907,1
40,1,1,1,2.622223,2
40,0,0,1,1.270017,3
40,0,0,1,1.665626,4
40,1,1,1,2.184333,5
40,0,0,1,1.302947,6
40,1,1,1,1.91085,7
40,1,1,1,1.480657,8
40,0,0,1,1.384176,9
40,1,1,1,1.803205,10
40,1,1,1,1.909809,11
40,0,0,1,1.30753,12
40,1,1,1,1.608632,13
40,1,1,1,1.785833,14
40,1,1,1,1.592997,15
40,0,0,1,1.712014,16
40,1,1,1,1.482626,17
40,0,0,1,0.977363,18
40,0,0,1,1.500689,19
40,0,0,1,1.168573,20
40,1,0,0,1.510603,21
40,1,1,1,2.560756,22
40,1,1,1,1.933546,23
40,0,0,1,2.247586,24
40,0,0,1,NA,25
40,0,1,0,1.730125,26
40,1,1,1,1.30641,27
40,1,0,0,1.62644,28
40,1,1,1,2.400655,29
40,0,0,1,NA,30
40,1,1,1,1.516276,31
40,1,1,1,1.26124,32
40,1,1,1,1.389647,33
40,1,0,0,1.942824,34
40,1,1,1,1.598046,35
40,1,0,0,2.022309,36
40,0,0,1,2.240059,37
40,1,1,1,1.485604,38
40,1,1,1,1.087858,39
40,0,0,1,2.253192,40
40,0,0,1,1.300465,41
40,1,1,1,1.689433,42
40,0,1,0,1.907222,43
40,1,1,1,1.459153,44
40,1,0,0,2.460152,45
40,0,0,1,1.674452,46
40,0,0,1,1.455098,47
40,0,1,0,2.897938,48
40,0,0,1,1.265555,49
40,0,1,0,1.819126,50
40,0,1,0,2.528291,51
40,1,0,0,1.828425,52
40,0,0,1,1.404383,53
40,1,1,1,1.844778,54
40,0,0,1,1.670981,55
40,0,0,1,1.896149,56
40,1,1,1,1.906767,57
40,0,0,1,1.383921,58
40,1,1,1,1.726216,59
40,0,1,0,3.071116,60
40,0,0,1,1.776076,61
40,0,1,0,1.458492,62
40,0,0,1,2.282229,63
40,1,1,1,1.27504,64
40,1,0,0,2.04411,65
40,0,0,1,1.783322,66
40,0,1,0,1.60123,67
40,0,1,0,1.742147,68
40,1,1,1,1.097364,69
40,0,1,0,1.203135,70
40,1,1,1,1.094492,71
40,0,1,0,1.527327,72
40,1,1,1,1.313394,73
40,1,1,1,1.520907,74
40,1,1,1,1.202581,75
40,0,1,0,1.097994,76
40,1,1,1,1.088309,77
40,1,1,1,1.438592,78
40,0,0,1,2.052438,79
40,1,1,1,1.378212,80
40,0,0,1,2.719602,81
40,1,1,1,1.703821,82
40,1,1,1,1.979875,83
40,0,0,1,2.47784,84
40,1,1,1,1.170594,85
40,0,1,0,1.316462,86
40,1,1,1,0.981789,87
40,1,1,1,1.095705,88
40,1,1,1,1.099357,89
40,0,0,1,1.926474,90
40,1,1,1,1.512476,91
40,1,1,1,1.751182,92
40,0,1,0,1.103465,93
40,1,1,1,0.868155,94
40,0,1,0,0.867072,95
40,1,1,1,1.205375,96
40,0,0,1,1.709018,97
40,0,1,0,1.087268,98
40,0,0,1,2.025572,99
40,0,1,0,1.291963,100
40,0,1,0,1.606031,101
40,1,1,1,1.074236,102
40,0,1,0,1.205205,103
40,1,1,1,1.185575,104
40,1,1,1,1.96825,105
40,0,1,0,1.420243,106
40,1,1,1,1.089008,107
40,0,1,0,0.758706,108
40,0,1,0,1.298822,109
40,1,1,1,1.18175,110
40,0,1,0,0.959816,111
40,0,1,0,0.766369,112
41,0,0,1,NA,1
41,0,0,1,1.195312,2
41,0,0,1,0.987135,3
41,1,1,1,1.916327,4
41,1,1,1,1.3998,5
41,0,1,0,1.520476,6
41,1,1,1,1.203993,7
41,0,0,1,1.409402,8
41,0,0,1,1.189366,9
41,1,1,1,1.498112,10
41,0,0,1,1.489472,11
41,0,0,1,1.280659,12
41,1,1,1,1.603182,13
41,1,1,1,1.180094,14
41,0,0,1,NA,15
41,0,1,0,2.103006,16
41,0,0,1,1.713244,17
41,1,1,1,1.909408,18
41,1,1,1,NA,19
41,0,0,1,1.481226,20
41,0,0,1,1.26119,21
41,0,0,1,1.178359,22
41,1,1,1,1.694387,23
41,0,0,1,1.302828,24
41,1,1,1,1.606364,25
41,1,1,1,NA,26
41,0,0,1,1.605743,27
41,1,1,1,1.505947,28
41,1,1,1,1.387292,29
41,1,1,1,1.365782,30
41,0,0,1,1.588469,31
41,0,0,1,1.090481,32
41,0,0,1,0.983433,33
41,1,1,1,1.489236,34
41,1,1,1,1.585113,35
41,0,0,1,2.022788,36
41,1,1,1,1.478543,37
41,0,0,1,1.806938,38
41,1,1,1,NA,39
41,0,0,1,1.369952,40
41,0,0,1,1.578372,41
41,1,1,1,1.598006,42
41,0,0,1,1.494278,43
41,1,1,1,1.491513,44
41,1,1,1,1.714738,45
41,1,1,1,1.260849,46
41,1,1,1,1.53707,47
41,1,0,0,NA,48
41,0,0,1,1.269885,49
41,0,0,1,1.286021,50
41,1,1,1,1.660439,51
41,1,1,1,1.904628,52
41,0,0,1,1.780238,53
41,1,1,1,1.600951,54
41,1,1,1,1.098775,55
41,1,1,1,1.207334,56
41,0,0,1,1.60507,57
41,0,0,1,0.978484,58
41,1,1,1,1.480195,59
41,0,0,1,1.387898,60
41,1,1,1,1.609796,61
41,1,1,1,1.203177,62
41,1,1,1,1.100127,63
41,0,0,1,1.572285,64
41,1,1,1,1.586394,65
41,1,1,1,1.078757,66
41,0,0,1,1.80508,67
41,0,0,1,1.31123,68
41,1,1,1,NA,69
41,1,1,1,2.152722,70
41,1,1,1,1.196745,71
41,0,0,1,1.496791,72
41,1,1,1,1.496659,73
41,0,0,1,1.612424,74
41,0,0,1,2.047086,75
41,1,1,1,1.601263,76
41,0,0,1,1.478274,77
41,0,0,1,1.280928,78
41,0,1,0,1.599229,79
41,0,0,1,1.598474,80
41,0,0,1,1.096577,81
41,1,1,1,1.605516,82
41,0,0,1,1.719826,83
41,0,0,1,1.184769,84
41,1,1,1,1.603494,85
41,0,0,1,1.489355,86
41,1,1,1,1.491592,87
41,0,0,1,1.910779,88
41,1,1,1,1.709902,89
41,0,0,1,1.363116,90
41,0,0,1,1.421254,91
41,0,0,1,1.2021,92
41,1,1,1,1.62889,93
41,1,1,1,1.286772,94
41,1,1,1,1.605375,95
41,0,0,1,1.568897,96
41,0,0,1,1.196847,97
41,0,0,1,1.523825,98
41,1,1,1,2.208931,99
41,1,1,1,1.61397,100
41,1,1,1,1.523534,101
41,0,0,1,1.506044,102
41,1,1,1,1.58466,103
41,0,0,1,1.617711,104
41,0,1,0,1.632032,105
41,1,1,1,1.392836,106
41,1,1,1,1.314256,107
41,1,1,1,1.185972,108
41,1,1,1,1.196774,109
41,1,1,1,1.422935,110
41,0,0,1,1.730723,111
41,0,0,1,1.939707,112
42,0,0,1,NA,1
42,0,0,1,1.093998,2
42,0,0,1,1.194298,3
42,0,0,1,0.990516,4
42,1,1,1,2.054865,5
42,1,1,1,2.042636,6
42,0,0,1,2.214668,7
42,0,0,1,1.273062,8
42,1,1,1,1.280549,9
42,1,1,1,1.677748,10
42,0,0,1,1.369538,11
42,0,1,0,1.60519,12
42,0,1,0,NA,13
42,1,1,1,1.07534,14
42,1,1,1,0.979553,15
42,0,0,1,1.505644,16
42,1,1,1,0.958757,17
42,1,1,1,1.363896,18
42,1,1,1,0.88313,19
42,0,0,1,1.498013,20
42,1,1,1,0.975878,21
42,0,0,1,1.701549,22
42,1,0,0,2.023956,23
42,1,1,1,1.167068,24
42,1,1,1,1.487545,25
42,1,1,1,1.20955,26
42,1,1,1,1.433663,27
42,0,0,1,1.727493,28
42,1,1,1,1.270579,29
42,0,1,0,0.96156,30
42,0,0,1,1.841922,31
42,0,1,0,1.835413,32
42,1,1,1,0.992014,33
42,1,1,1,1.518652,34
42,1,1,1,1.088976,35
42,0,0,1,1.60368,36
42,0,0,1,1.601411,37
42,0,0,1,1.928271,38
42,1,1,1,1.481901,39
42,1,1,1,1.095181,40
42,0,1,0,1.206408,41
42,1,1,1,1.100174,42
42,1,1,1,1.096971,43
42,0,0,1,2.050145,44
42,0,0,1,0.941546,45
42,1,1,1,1.292673,46
42,0,1,0,1.192757,47
42,1,1,1,0.979315,48
42,1,1,1,0.993207,49
42,0,1,0,NA,50
42,0,1,0,1.411817,51
42,1,1,1,1.099624,52
42,1,1,1,1.094161,53
42,1,1,1,1.092161,54
42,1,1,1,1.414111,55
42,0,1,0,1.201637,56
42,0,0,1,2.366865,57
42,0,0,1,NA,58
42,0,1,0,1.588794,59
42,0,1,0,1.166663,60
42,1,1,1,1.070439,61
42,0,0,1,NA,62
42,1,1,1,1.254104,63
42,0,1,0,1.081369,64
42,1,1,1,1.200032,65
42,0,1,0,1.0845,66
42,0,1,0,1.313885,67
42,0,1,0,1.093787,68
42,1,1,1,1.2002,69
42,1,1,1,1.084782,70
42,1,1,1,1.096088,71
42,1,1,1,0.987531,72
42,1,1,1,0.98478,73
42,1,1,1,0.980676,74
42,1,0,0,2.037481,75
42,1,1,1,1.083872,76
42,0,0,1,2.239579,77
42,1,1,1,1.588663,78
42,1,1,1,0.971342,79
42,0,1,0,1.179212,80
42,1,1,1,1.202078,81
42,0,1,0,0.976482,82
42,0,0,1,1.819319,83
42,0,1,0,1.160361,84
42,1,1,1,0.989194,85
42,0,1,0,0.986017,86
42,0,1,0,1.308382,87
42,1,1,1,1.528498,88
42,1,1,1,1.087254,89
42,0,0,1,1.944095,90
42,0,0,1,1.807438,91
42,0,0,1,1.415291,92
42,0,1,0,1.729271,93
42,0,0,1,1.61928,94
42,1,1,1,1.916291,95
42,1,0,0,1.806404,96
42,1,1,1,1.072265,97
42,0,1,0,1.097502,98
42,1,1,1,1.201002,99
42,1,1,1,1.194007,100
42,1,1,1,1.092709,101
42,1,1,1,1.085932,102
42,1,1,1,0.981495,103
42,1,1,1,1.094138,104
42,0,1,0,1.297029,105
42,0,1,0,1.305294,106
42,0,0,1,1.725542,107
42,0,0,1,1.472978,108
42,0,1,0,1.921706,109
42,0,1,0,1.202367,110
42,0,1,0,1.192188,111
42,0,1,0,0.979171,112
43,1,0,0,NA,1
43,0,0,1,1.418284,2
43,1,1,1,1.941641,3
43,0,0,1,1.338823,4
43,1,1,1,1.618641,5
43,1,1,1,1.475392,6
43,0,1,0,1.085649,7
43,1,1,1,1.203669,8
43,1,1,1,1.09688,9
43,1,1,1,0.979624,10
43,0,0,1,1.497956,11
43,0,0,1,0.959222,12
43,0,0,1,1.311618,13
43,0,0,1,0.974209,14
43,1,1,1,1.828007,15
43,1,1,1,NA,16
43,0,0,1,1.466,17
43,1,1,1,1.371265,18
43,1,1,1,1.177001,19
43,0,1,0,1.097458,20
43,0,1,0,2.294358,21
43,0,0,1,1.809887,22
43,1,1,1,1.308567,23
43,1,1,1,1.777252,24
43,0,0,1,1.293739,25
43,1,0,0,2.427601,26
43,1,1,1,1.904934,27
43,0,1,0,1.486432,28
43,0,1,0,1.187376,29
43,1,1,1,2.254186,30
43,0,0,1,1.293528,31
43,1,0,0,1.975353,32
43,1,1,1,1.392046,33
43,0,1,0,1.644334,34
43,0,0,1,1.904212,35
43,0,1,0,1.265241,36
43,1,1,1,1.387508,37
43,0,0,1,1.625744,38
43,0,0,1,1.199482,39
43,0,0,1,1.080827,40
43,1,1,1,2.170766,41
43,1,0,0,1.2815,42
43,0,0,1,1.150149,43
43,1,0,0,1.160551,44
43,1,0,0,1.388013,45
43,0,0,1,1.170654,46
43,0,0,1,1.189111,47
43,0,1,0,1.794064,48
43,0,0,1,1.526571,49
43,0,1,0,2.848902,50
43,1,1,1,1.355492,51
43,0,1,0,1.577914,52
43,0,1,0,0.969863,53
43,1,0,0,2.168859,54
43,1,1,1,1.156135,55
43,1,1,1,1.077154,56
43,1,1,1,2.365963,57
43,1,1,1,1.357633,58
43,0,0,1,NA,59
43,1,0,0,1.195297,60
43,0,0,1,0.962673,61
43,1,1,1,1.956798,62
43,0,0,1,1.376986,63
43,0,0,1,1.082531,64
43,1,1,1,1.510834,65
43,1,1,1,1.42425,66
43,1,0,0,1.182604,67
43,0,0,1,1.280953,68
43,1,0,0,1.264899,69
43,0,0,1,1.158287,70
43,1,1,1,1.493589,71
43,1,1,1,1.36002,72
43,0,0,1,1.160121,73
43,1,1,1,1.816645,74
43,0,0,1,1.285879,75
43,1,1,1,1.255299,76
43,0,1,0,1.48163,77
43,0,0,1,1.613905,78
43,0,0,1,2.321885,79
43,1,1,1,1.514946,80
43,0,0,1,1.361738,81
43,0,1,0,NA,82
43,0,0,1,1.503963,83
43,1,1,1,1.39282,84
43,0,1,0,1.413554,85
43,1,1,1,1.212708,86
43,0,0,1,1.395888,87
43,0,0,1,1.601806,88
43,1,1,1,NA,89
43,1,1,1,1.584971,90
43,0,0,1,2.251078,91
43,1,1,1,1.735668,92
43,0,1,0,1.495714,93
43,0,0,1,1.609283,94
43,1,0,0,1.620969,95
43,1,0,0,1.482022,96
43,1,1,1,1.724222,97
43,1,1,1,NA,98
43,1,1,1,0.98304,99
43,0,0,1,1.491191,100
43,1,0,0,1.719846,101
43,1,1,1,2.655095,102
43,0,0,1,1.702853,103
43,1,1,1,1.695768,104
43,0,0,1,1.606592,105
43,0,1,0,1.707136,106
43,1,1,1,NA,107
43,0,1,0,1.725878,108
43,1,0,0,NA,109
43,0,0,1,1.298012,110
43,1,1,1,1.958752,111
43,0,1,0,1.090284,112
44,1,1,1,1.594981,1
44,1,1,1,1.088783,2
44,0,0,1,1.397668,3
44,0,0,1,1.199142,4
44,1,1,1,2.242328,5
44,0,0,1,1.204856,6
44,1,1,1,1.388307,7
44,1,1,1,1.692196,8
44,1,1,1,1.077747,9
44,0,0,1,1.182782,10
44,1,1,1,1.625348,11
44,1,0,0,1.643679,12
44,1,1,1,1.82473,13
44,0,0,1,1.617474,14
44,0,0,1,1.096874,15
44,0,0,1,0.982644,16
44,1,0,0,2.3052,17
44,1,1,1,1.522201,18
44,1,1,1,1.078618,19
44,1,0,0,1.930212,20
44,1,1,1,1.403625,21
44,0,0,1,1.493746,22
44,1,1,1,1.305462,23
44,0,0,1,1.383848,24
44,0,0,1,0.985984,25
44,0,0,1,0.992355,26
44,1,1,1,1.500588,27
44,0,1,0,1.588069,28
44,0,0,1,1.196552,29
44,0,0,1,2.290397,30
44,0,0,1,1.196544,31
44,1,1,1,1.512712,32
44,0,0,1,1.303855,33
44,0,0,1,1.085815,34
44,0,0,1,0.991487,35
44,1,1,1,1.412622,36
44,1,1,1,1.081838,37
44,1,1,1,1.294931,38
44,0,1,0,1.402048,39
44,1,1,1,1.061784,40
44,1,0,0,1.546002,41
44,0,0,1,0.990676,42
44,1,1,1,1.749444,43
44,1,1,1,0.988478,44
44,0,0,1,1.41,45
44,0,0,1,1.924955,46
44,1,1,1,1.636448,47
44,0,0,1,1.509614,48
44,1,0,0,1.707182,49
44,0,0,1,1.093968,50
44,1,1,1,1.406905,51
44,1,1,1,1.105362,52
44,1,1,1,0.982388,53
44,0,0,1,1.309506,54
44,1,1,1,1.390816,55
44,1,1,1,0.983744,56
44,0,0,1,1.625796,57
44,1,1,1,2.242054,58
44,0,0,1,1.515332,59
44,1,1,1,1.410432,60
44,1,1,1,1.201807,61
44,1,1,1,1.867196,62
44,1,1,1,1.191005,63
44,1,1,1,1.102654,64
44,1,1,1,1.201061,65
44,1,1,1,1.093315,66
44,0,0,1,1.718284,67
44,1,1,1,1.280828,68
44,1,1,1,1.511758,69
44,0,0,1,1.744534,70
44,1,1,1,1.300073,71
44,0,0,1,1.51572,72
