"","sub","trial","stim","item","response","correct","RT"
"1",1,1,"pict","old","old",1,3.43991
"2",1,2,"pict","old","old",1,1.205457
"3",1,3,"pict","old","old",1,1.095678
"4",1,4,"pict","new","new",1,2.043867
"5",1,5,"pict","new","new",1,1.844368
"6",1,6,"pict","old","new",0,2.724882
"7",1,7,"pict","old","old",1,1.591455
"8",1,8,"pict","old","old",1,1.082147
"9",1,9,"pict","old","old",1,1.095867
"10",1,10,"pict","new","new",1,1.935899
"11",1,11,"pict","old","old",1,1.891613
"12",1,12,"pict","new","new",1,1.71534
"13",1,13,"pict","new","new",1,1.700374
"14",1,14,"pict","new","new",1,1.892044
"15",1,15,"pict","old","old",1,1.402695
"16",1,16,"pict","new","new",1,1.714002
"17",1,17,"pict","old","old",1,2.115791
"18",1,18,"pict","old","old",1,1.423066
"19",1,19,"pict","old","old",1,1.204186
"20",1,20,"pict","old","old",1,1.086384
"21",1,21,"pict","new","new",1,1.908782
"22",1,22,"pict","new","new",1,2.008799
"23",1,23,"pict","old","old",1,1.483167
"24",1,24,"pict","old","old",1,1.063163
"25",1,25,"pict","old","old",1,0.974075
"26",1,26,"pict","old","old",1,1.088008
"27",1,27,"pict","new","new",1,1.712688
"28",1,28,"pict","old","old",1,1.281547
"29",1,29,"pict","new","new",1,1.839041
"30",1,30,"pict","old","old",1,1.182329
"31",1,31,"pict","old","old",1,3.417096
"32",1,32,"pict","old","old",1,1.081913
"33",1,33,"pict","new","new",1,1.299634
"34",1,34,"pict","old","old",1,2.132255
"35",1,35,"pict","old","old",1,1.312615
"36",1,36,"pict","new","new",1,1.407343
"37",1,37,"pict","new","new",1,2.069765
"38",1,38,"pict","old","old",1,1.607018
"39",1,39,"pict","new","new",1,1.586151
"40",1,40,"pict","old","old",1,1.185527
"41",1,41,"pict","new","new",1,2.436012
"42",1,42,"pict","new","old",0,1.609884
"43",1,43,"pict","old","old",1,1.353066
"44",1,44,"pict","old","old",1,1.250013
"45",1,45,"pict","old","old",1,1.985631
"46",1,46,"pict","old","old",1,1.807725
"47",1,47,"pict","new","new",1,1.701808
"48",1,48,"pict","old","old",1,1.608684
"49",1,49,"pict","new","new",1,1.51337
"50",1,50,"pict","old","old",1,1.678104
"51",1,51,"pict","old","old",1,1.347057
"52",1,52,"pict","old","new",0,1.385528
"53",1,53,"pict","old","new",0,1.583945
"54",1,54,"pict","old","new",0,2.428782
"55",1,55,"pict","old","old",1,1.625437
"56",1,56,"pict","new","new",1,1.708579
"57",1,57,"pict","new","new",1,1.681649
"58",1,58,"pict","old","old",1,1.613006
"59",1,59,"pict","old","old",1,1.824835
"60",1,60,"pict","old","old",1,1.166658
"61",1,61,"pict","old","old",1,1.08857
"62",1,62,"pict","old","old",1,1.193623
"63",1,63,"pict","new","new",1,1.707136
"64",1,64,"pict","old","old",1,1.800963
"65",1,65,"pict","new","new",1,1.803467
"66",1,66,"pict","new","new",1,1.260579
"67",1,67,"pict","new","new",1,1.199011
"68",1,68,"pict","new","new",1,1.087207
"69",1,69,"pict","old","old",1,1.404834
"70",1,70,"pict","new","new",1,1.507724
"71",1,71,"pict","old","old",1,1.509817
"72",1,72,"pict","new","new",1,2.064703
"73",1,73,"pict","new","new",1,2.02004
"74",1,74,"pict","old","old",1,1.163608
"75",1,75,"pict","new","new",1,1.701374
"76",1,76,"pict","new","new",1,2.002045
"77",1,77,"pict","new","new",1,1.586768
"78",1,78,"pict","old","old",1,1.279628
"79",1,79,"pict","old","old",1,1.301023
"80",1,80,"pict","new","new",1,2.70932
"81",1,81,"pict","new","new",1,1.680207
"82",1,82,"pict","new","new",1,1.614582
"83",1,83,"pict","old","old",1,1.689283
"84",1,84,"pict","new","new",1,2.77204
"85",1,85,"pict","new","new",1,1.680915
"86",1,86,"pict","new","new",1,1.378412
"87",1,87,"pict","new","new",1,2.267422
"88",1,88,"pict","old","old",1,1.603328
"89",1,89,"pict","old","old",1,2.138905
"90",1,90,"pict","old","old",1,2.173335
"91",1,91,"pict","new","new",1,2.029934
"92",1,92,"pict","old","old",1,1.69296
"93",1,93,"pict","new","new",1,1.384343
"94",1,94,"pict","new","new",1,1.515639
"95",1,95,"pict","old","old",1,1.490187
"96",1,96,"pict","new","new",1,1.617516
"97",1,97,"pict","new","new",1,1.198937
"98",1,98,"pict","new","new",1,0.972991
"99",1,99,"pict","new","new",1,1.092084
"100",1,100,"pict","new","new",1,1.088538
"101",1,101,"pict","new","new",1,1.079268
"102",1,102,"pict","new","new",1,1.201297
"103",1,103,"pict","new","new",1,1.310761
"104",1,104,"pict","old","old",1,2.034767
"105",1,105,"pict","old","old",1,1.303935
"106",1,106,"pict","new","new",1,1.601848
"107",1,107,"pict","new","new",1,2.186581
"108",1,108,"pict","new","new",1,1.18689
"109",1,109,"pict","new","new",1,1.080073
"110",1,110,"pict","new","new",1,1.083951
"111",1,111,"pict","old","old",1,1.939287
"112",1,112,"pict","new","new",1,2.263571
"113",1,113,"aud","old","old",1,1.929901
"114",1,114,"aud","old","old",1,1.08896
"115",1,115,"aud","old","old",1,0.761351
"116",1,116,"aud","old","old",1,0.761415
"117",1,117,"aud","old","old",1,0.760891
"118",1,118,"aud","old","old",1,0.761449
"119",1,119,"aud","new","new",1,0.761393
"120",1,120,"aud","new","new",1,0.854977
"121",1,121,"aud","new","new",1,0.76133
"122",1,122,"aud","new","new",1,0.870628
"123",1,123,"aud","old","old",1,1.151695
"124",1,124,"aud","new","new",1,0.965806
"125",1,125,"aud","old","old",1,1.510332
"126",1,126,"aud","old","old",1,0.984913
"127",1,127,"aud","old","new",0,1.71308
"128",1,128,"aud","new","new",1,0.958987
"129",1,129,"aud","new","new",1,0.870616
"130",1,130,"aud","new","new",1,0.964325
"131",1,131,"aud","old","old",1,1.182392
"132",1,132,"aud","new","new",1,1.712812
"133",1,133,"aud","old","old",1,1.089378
"134",1,134,"aud","new","old",0,0.76139
"135",1,135,"aud","old","old",1,0.745599
"136",1,136,"aud","new","new",1,1.057996
"137",1,137,"aud","old","old",1,1.307381
"138",1,138,"aud","old","old",1,0.870715
"139",1,139,"aud","old","old",1,0.76137
"140",1,140,"aud","old","new",0,0.871052
"141",1,141,"aud","new","new",1,0.856128
"142",1,142,"aud","new","new",1,1.525813
"143",1,143,"aud","new","new",1,0.760667
"144",1,144,"aud","old","old",1,0.855081
"145",1,145,"aud","new","new",1,0.763024
"146",1,146,"aud","new","new",1,0.761317
"147",1,147,"aud","old","old",1,0.766567
"148",1,148,"aud","new","new",1,0.759719
"149",1,149,"aud","old","old",1,0.859905
"150",1,150,"aud","old","old",1,0.761259
"151",1,151,"aud","old","new",0,1.714861
"152",1,152,"aud","new","new",1,0.760931
"153",1,153,"aud","old","old",1,0.761304
"154",1,154,"aud","old","old",1,0.761258
"155",1,155,"aud","old","old",1,1.915738
"156",1,156,"aud","old","old",1,0.754635
"157",1,157,"aud","new","new",1,1.075148
"158",1,158,"aud","new","new",1,0.761391
"159",1,159,"aud","new","new",1,1.075317
"160",1,160,"aud","old","old",1,0.872624
"161",1,161,"aud","new","new",1,0.748136
"162",1,162,"aud","new","new",1,0.870559
"163",1,163,"aud","old","new",0,4.028447
"164",1,164,"aud","new","old",0,1.184339
"165",1,165,"aud","new","new",1,0.948614
"166",1,166,"aud","new","new",1,1.073643
"167",1,167,"aud","new","old",0,1.090972
"168",1,168,"aud","new","new",1,0.986409
"169",1,169,"aud","new","new",1,0.761486
"170",1,170,"aud","old","new",0,1.697541
"171",1,171,"aud","old","new",0,1.307499
"172",1,172,"aud","new","new",1,1.075278
"173",1,173,"aud","old","old",1,1.057931
"174",1,174,"aud","old","old",1,0.761482
"175",1,175,"aud","old","old",1,0.761523
"176",1,176,"aud","new","new",1,0.872031
"177",1,177,"aud","old","old",1,1.082206
"178",1,178,"aud","old","old",1,0.761436
"179",1,179,"aud","new","new",1,0.76332
"180",1,180,"aud","new","new",1,0.761491
"181",1,181,"aud","new","new",1,0.870688
"182",1,182,"aud","old","old",1,0.870253
"183",1,183,"aud","old","old",1,0.76149
"184",1,184,"aud","new","new",1,1.075302
"185",1,185,"aud","new","new",1,0.746055
"186",1,186,"aud","old","old",1,0.758178
"187",1,187,"aud","new","new",1,0.958361
"188",1,188,"aud","old","old",1,0.756416
"189",1,189,"aud","new","new",1,0.747631
"190",1,190,"aud","old","old",1,0.763303
"191",1,191,"aud","old","old",1,0.964302
"192",1,192,"aud","old","old",1,0.761432
"193",1,193,"aud","old","old",1,0.856674
"194",1,194,"aud","old","old",1,0.966114
"195",1,195,"aud","old","old",1,0.761329
"196",1,196,"aud","new","new",1,0.950463
"197",1,197,"aud","old","old",1,0.763271
"198",1,198,"aud","old","new",0,1.806915
"199",1,199,"aud","new","new",1,2.66605
"200",1,200,"aud","old","old",1,0.854049
"201",1,201,"aud","new","new",1,0.769446
"202",1,202,"aud","old","old",1,0.855233
"203",1,203,"aud","new","new",1,0.856835
"204",1,204,"aud","new","old",0,1.16723
"205",1,205,"aud","new","new",1,0.756849
"206",1,206,"aud","new","new",1,0.761524
"207",1,207,"aud","new","new",1,0.97984
"208",1,208,"aud","new","new",1,0.761434
"209",1,209,"aud","new","new",1,0.76149
"210",1,210,"aud","new","new",1,0.870712
"211",1,211,"aud","old","old",1,0.966046
"212",1,212,"aud","old","old",1,0.761548
"213",1,213,"aud","new","new",1,0.747642
"214",1,214,"aud","new","new",1,0.763276
"215",1,215,"aud","old","old",1,1.931502
"216",1,216,"aud","new","new",1,1.183055
"217",1,217,"aud","old","old",1,1.385501
"218",1,218,"aud","new","new",1,0.7691
"219",1,219,"aud","new","new",1,0.761537
"220",1,220,"aud","old","old",1,0.949313
"221",1,221,"aud","new","new",1,0.840657
"222",1,222,"aud","new","new",1,0.870688
"223",1,223,"aud","old","old",1,0.760724
"224",1,224,"aud","old","old",1,0.761608
"225",10,1,"aud","old","old",1,1.506936
"226",10,2,"aud","old","new",0,7.425861
"227",10,3,"aud","old","old",1,3.109669
"228",10,4,"aud","old","old",1,0.702419
"229",10,5,"aud","new","new",1,0.702665
"230",10,6,"aud","new","new",1,0.802617
"231",10,7,"aud","new","new",1,0.702967
"232",10,8,"aud","new","new",1,0.702667
"233",10,9,"aud","old","old",1,0.702608
"234",10,10,"aud","new","new",1,0.702443
"235",10,11,"aud","old","old",1,0.802605
"236",10,12,"aud","old","old",1,0.702466
"237",10,13,"aud","old","old",1,0.702711
"238",10,14,"aud","new","new",1,0.803116
"239",10,15,"aud","new","new",1,2.810033
"240",10,16,"aud","old","old",1,0.802858
"241",10,17,"aud","old","old",1,0.702518
"242",10,18,"aud","old","old",1,0.702849
"243",10,19,"aud","new","new",1,0.702872
"244",10,20,"aud","old","old",1,0.702493
"245",10,21,"aud","new","new",1,0.602367
"246",10,22,"aud","old","old",1,0.802729
"247",10,23,"aud","old","old",1,0.702685
"248",10,24,"aud","new","new",1,0.602112
"249",10,25,"aud","new","new",1,0.903265
"250",10,26,"aud","old","old",1,0.803138
"251",10,27,"aud","new","new",1,0.702043
"252",10,28,"aud","new","new",1,1.205852
"253",10,29,"aud","new","new",1,0.702769
"254",10,30,"aud","old","old",1,0.802935
"255",10,31,"aud","old","new",0,1.706151
"256",10,32,"aud","new","new",1,0.70296
"257",10,33,"aud","old","old",1,0.603708
"258",10,34,"aud","old","new",0,0.903256
"259",10,35,"aud","new","new",1,0.903265
"260",10,36,"aud","new","new",1,0.802933
"261",10,37,"aud","old","old",1,0.702496
"262",10,38,"aud","new","new",1,0.70253
"263",10,39,"aud","new","new",1,1.405211
"264",10,40,"aud","new","new",1,0.702669
"265",10,41,"aud","new","new",1,0.90319
"266",10,42,"aud","old","old",1,0.601893
"267",10,43,"aud","old","old",1,0.602187
"268",10,44,"aud","old","old",1,0.702729
"269",10,45,"aud","new","new",1,1.906309
"270",10,46,"aud","old","old",1,1.103639
"271",10,47,"aud","old","old",1,0.803007
"272",10,48,"aud","new","new",1,0.702436
"273",10,49,"aud","old","old",1,2.709045
"274",10,50,"aud","new","new",1,5.017917
"275",10,51,"aud","new","new",1,0.903562
"276",10,52,"aud","new","new",1,0.802858
"277",10,53,"aud","new","new",1,0.803522
"278",10,54,"aud","new","new",1,0.602069
"279",10,55,"aud","old","old",1,0.70241
"280",10,56,"aud","new","new",1,1.003559
"281",10,57,"aud","old","new",0,0.702625
"282",10,58,"aud","new","new",1,0.904133
"283",10,59,"aud","new","new",1,0.602493
"284",10,60,"aud","new","new",1,0.602339
"285",10,61,"aud","old","old",1,0.802613
"286",10,62,"aud","new","old",0,1.806387
"287",10,63,"aud","new","new",1,0.602779
"288",10,64,"aud","old","new",0,1.204465
"289",10,65,"aud","new","new",1,0.702563
"290",10,66,"aud","old","old",1,1.204725
"291",10,67,"aud","new","new",1,0.802692
"292",10,68,"aud","old","old",1,2.107592
"293",10,69,"aud","old","new",0,1.305134
"294",10,70,"aud","old","old",1,0.803214
"295",10,71,"aud","new","new",1,0.903311
"296",10,72,"aud","new","new",1,1.103579
"297",10,73,"aud","new","new",1,0.702927
"298",10,74,"aud","new","new",1,0.702971
"299",10,75,"aud","old","old",1,1.204399
"300",10,76,"aud","new","new",1,0.903191
"301",10,77,"aud","new","new",1,1.103835
"302",10,78,"aud","new","new",1,0.70268
"303",10,79,"aud","old","old",1,0.903004
"304",10,80,"aud","new","new",1,1.003832
"305",10,81,"aud","old","old",1,0.602187
"306",10,82,"aud","new","new",1,1.00334
"307",10,83,"aud","new","new",1,0.702617
"308",10,84,"aud","old","old",1,0.702503
"309",10,85,"aud","old","old",1,0.602489
"310",10,86,"aud","old","new",0,0.702467
"311",10,87,"aud","new","new",1,0.602192
"312",10,88,"aud","old","old",1,0.702656
"313",10,89,"aud","old","old",1,0.702698
"314",10,90,"aud","new","new",1,0.803095
"315",10,91,"aud","old","new",0,1.505103
"316",10,92,"aud","old","old",1,1.003704
"317",10,93,"aud","old","old",1,0.70269
"318",10,94,"aud","new","new",1,0.702495
"319",10,95,"aud","old","new",0,0.903161
"320",10,96,"aud","old","new",0,0.702418
"321",10,97,"aud","old","old",1,2.909437
"322",10,98,"aud","old","old",1,0.702841
"323",10,99,"aud","new","new",1,1.304098
"324",10,100,"aud","old","new",0,2.106713
"325",10,101,"aud","old","old",1,0.702322
"326",10,102,"aud","new","new",1,0.702846
"327",10,103,"aud","new","new",1,2.107684
"328",10,104,"aud","new","new",1,2.809605
"329",10,105,"aud","old","old",1,0.702512
"330",10,106,"aud","new","new",1,0.702696
"331",10,107,"aud","old","new",0,2.007076
"332",10,108,"aud","new","new",1,0.803306
"333",10,109,"aud","old","old",1,2.107325
"334",10,110,"aud","new","new",1,0.702377
"335",10,111,"aud","old","old",1,0.702742
"336",10,112,"aud","old","new",0,0.702395
"337",10,113,"pict","new","new",1,2.513092
"338",10,114,"pict","old","old",1,1.605314
"339",10,115,"pict","new","new",1,1.405281
"340",10,116,"pict","old","old",1,1.404799
"341",10,117,"pict","old","old",1,3.01091
"342",10,118,"pict","old","old",1,1.204358
"343",10,119,"pict","old","old",1,9.935713
"344",10,120,"pict","new","new",1,1.806676
"345",10,121,"pict","old","old",1,1.404584
"346",10,122,"pict","new","new",1,4.214782
"347",10,123,"pict","new","new",1,1.504983
"348",10,124,"pict","new","new",1,1.204369
"349",10,125,"pict","old","old",1,1.4054
"350",10,126,"pict","old","old",1,1.204115
"351",10,127,"pict","new","new",1,1.605288
"352",10,128,"pict","old","old",1,1.606084
"353",10,129,"pict","old","old",1,1.403766
"354",10,130,"pict","old","old",1,1.003918
"355",10,131,"pict","new","new",1,1.404944
"356",10,132,"pict","old","old",1,1.604704
"357",10,133,"pict","new","new",1,2.508619
"358",10,134,"pict","new","new",1,1.203966
"359",10,135,"pict","new","new",1,1.204234
"360",10,136,"pict","old","old",1,1.605808
"361",10,137,"pict","new","new",1,1.304126
"362",10,138,"pict","old","old",1,1.304748
"363",10,139,"pict","new","old",0,2.30718
"364",10,140,"pict","new","new",1,1.203414
"365",10,141,"pict","new","new",1,2.106797
"366",10,142,"pict","old","old",1,1.605356
"367",10,143,"pict","new","new",1,1.404706
"368",10,144,"pict","old","old",1,1.504903
"369",10,145,"pict","new","new",1,1.404575
"370",10,146,"pict","new","new",1,1.706589
"371",10,147,"pict","new","new",1,1.304856
"372",10,148,"pict","old","old",1,1.404899
"373",10,149,"pict","old","old",1,1.103996
"374",10,150,"pict","new","old",0,1.6055
"375",10,151,"pict","old","old",1,1.405008
"376",10,152,"pict","old","old",1,1.405398
"377",10,153,"pict","old","old",1,1.104001
"378",10,154,"pict","new","new",1,1.404515
"379",10,155,"pict","new","new",1,1.103943
"380",10,156,"pict","old","old",1,1.605498
"381",10,157,"pict","old","old",1,1.103893
"382",10,158,"pict","old","old",1,1.305043
"383",10,159,"pict","new","new",1,1.505702
"384",10,160,"pict","old","old",1,1.505016
"385",10,161,"pict","new","new",1,1.40466
"386",10,162,"pict","old","old",1,2.007201
"387",10,163,"pict","old","old",1,1.204777
"388",10,164,"pict","old","old",1,2.408646
"389",10,165,"pict","old","old",1,1.204371
"390",10,166,"pict","new","new",1,2.006138
"391",10,167,"pict","new","new",1,1.305065
"392",10,168,"pict","old","old",1,1.505415
"393",10,169,"pict","new","new",1,1.605534
"394",10,170,"pict","new","new",1,2.107126
"395",10,171,"pict","new","new",1,2.107725
"396",10,172,"pict","old","old",1,1.605226
"397",10,173,"pict","new","new",1,1.605157
"398",10,174,"pict","old","old",1,1.705187
"399",10,175,"pict","old","old",1,1.20431
"400",10,176,"pict","new","new",1,1.505368
"401",10,177,"pict","new","new",1,1.104241
"402",10,178,"pict","old","old",1,1.605117
"403",10,179,"pict","new","new",1,1.705754
"404",10,180,"pict","new","new",1,1.10397
"405",10,181,"pict","old","old",1,1.705389
"406",10,182,"pict","new","new",1,1.805777
"407",10,183,"pict","old","old",1,1.90632
"408",10,184,"pict","new","new",1,1.605229
"409",10,185,"pict","old","old",1,1.505013
"410",10,186,"pict","old","old",1,1.204283
"411",10,187,"pict","new","new",1,1.605147
"412",10,188,"pict","old","old",1,2.708862
"413",10,189,"pict","new","new",1,1.705084
"414",10,190,"pict","new","new",1,4.815707
"415",10,191,"pict","new","new",1,1.504297
"416",10,192,"pict","old","new",0,1.204913
"417",10,193,"pict","new","new",1,1.103864
"418",10,194,"pict","old","old",1,1.705467
"419",10,195,"pict","old","new",0,2.909466
"420",10,196,"pict","new","new",1,1.404784
"421",10,197,"pict","new","new",1,1.2042
"422",10,198,"pict","new","new",1,1.003812
"423",10,199,"pict","old","old",1,2.106777
"424",10,200,"pict","new","new",1,1.304349
"425",10,201,"pict","old","old",1,1.605384
"426",10,202,"pict","new","new",1,1.303597
"427",10,203,"pict","new","new",1,1.103824
"428",10,204,"pict","old","old",1,1.605474
"429",10,205,"pict","new","new",1,1.504412
"430",10,206,"pict","new","new",1,1.103912
"431",10,207,"pict","old","old",1,3.311748
"432",10,208,"pict","old","old",1,1.50463
"433",10,209,"pict","old","old",1,1.504837
"434",10,210,"pict","old","old",1,1.604871
"435",10,211,"pict","old","old",1,1.404517
"436",10,212,"pict","old","new",0,1.705069
"437",10,213,"pict","new","new",1,1.504781
"438",10,214,"pict","new","new",1,1.104095
"439",10,215,"pict","new","new",1,1.205163
"440",10,216,"pict","old","new",0,1.104038
"441",10,217,"pict","new","new",1,1.905377
"442",10,218,"pict","old","new",0,1.204543
"443",10,219,"pict","new","new",1,1.40528
"444",10,220,"pict","old","new",0,1.304505
"445",10,221,"pict","new","new",1,1.505361
"446",10,222,"pict","old","old",1,1.605051
"447",10,223,"pict","new","new",1,1.705564
"448",10,224,"pict","old","old",1,1.705394
"449",101,1,"pict","new","new",1,3.914441
"450",101,2,"pict","old","new",0,1.477559
"451",101,3,"pict","old","old",1,1.492328
"452",101,4,"pict","old","old",1,1.166732
"453",101,5,"pict","old","old",1,1.090513
"454",101,6,"pict","new","new",1,1.153289
"455",101,7,"pict","old","old",1,2.781322
"456",101,8,"pict","old","old",1,1.059802
"457",101,9,"pict","old","old",1,1.176354
"458",101,10,"pict","old","old",1,0.968708
"459",101,11,"pict","new","new",1,1.18535
"460",101,12,"pict","new","new",1,1.070824
"461",101,13,"pict","new","new",1,1.267984
"462",101,14,"pict","old","old",1,1.87091
"463",101,15,"pict","new","new",1,1.479876
"464",101,16,"pict","new","new",1,1.143117
"465",101,17,"pict","old","old",1,1.163524
"466",101,18,"pict","old","old",1,1.252602
"467",101,19,"pict","new","new",1,1.377977
"468",101,20,"pict","new","new",1,1.261975
"469",101,21,"pict","new","new",1,0.860022
"470",101,22,"pict","new","new",1,1.292119
"471",101,23,"pict","new","new",1,2.720445
"472",101,24,"pict","old","old",1,2.351161
"473",101,25,"pict","new","new",1,1.69512
"474",101,26,"pict","old","old",1,1.293551
"475",101,27,"pict","new","new",1,1.27283
"476",101,28,"pict","old","new",0,1.766379
"477",101,29,"pict","old","old",1,1.079272
"478",101,30,"pict","new","new",1,1.166471
"479",101,31,"pict","old","new",0,3.32016
"480",101,32,"pict","new","new",1,1.273882
"481",101,33,"pict","new","new",1,1.296807
"482",101,34,"pict","old","old",1,1.596645
"483",101,35,"pict","old","old",1,1.259368
"484",101,36,"pict","old","old",1,4.391167
"485",101,37,"pict","old","old",1,1.171918
"486",101,38,"pict","new","new",1,1.5738
"487",101,39,"pict","old","old",1,1.051563
"488",101,40,"pict","new","new",1,1.932732
"489",101,41,"pict","new","new",1,3.473761
"490",101,42,"pict","old","old",1,1.366556
"491",101,43,"pict","old","old",1,2.731185
"492",101,44,"pict","new","new",1,1.588666
"493",101,45,"pict","new","new",1,2.041079
"494",101,46,"pict","new","new",1,3.715108
"495",101,47,"pict","new","new",1,1.532611
"496",101,48,"pict","new","new",1,1.194705
"497",101,49,"pict","old","old",1,1.39461
"498",101,50,"pict","new","old",0,1.958839
"499",101,51,"pict","new","new",1,1.678513
"500",101,52,"pict","new","new",1,2.504105
"501",101,53,"pict","old","old",1,1.375529
"502",101,54,"pict","new","new",1,1.087239
"503",101,55,"pict","old","old",1,1.260433
"504",101,56,"pict","old","old",1,1.804788
"505",101,57,"pict","old","old",1,1.266919
"506",101,58,"pict","new","new",1,1.284075
"507",101,59,"pict","new","new",1,1.797178
"508",101,60,"pict","old","new",0,1.467803
"509",101,61,"pict","new","new",1,1.293659
"510",101,62,"pict","old","old",1,2.13281
"511",101,63,"pict","old","new",0,3.588961
"512",101,64,"pict","old","new",0,1.494486
"513",101,65,"pict","old","old",1,1.409752
"514",101,66,"pict","new","new",1,1.463315
"515",101,67,"pict","new","new",1,1.194154
"516",101,68,"pict","new","new",1,2.403514
"517",101,69,"pict","old","old",1,3.631028
"518",101,70,"pict","new","new",1,1.273291
"519",101,71,"pict","new","new",1,1.193528
"520",101,72,"pict","new","new",1,1.528752
"521",101,73,"pict","old","old",1,3.158367
"522",101,74,"pict","old","old",1,3.186594
"523",101,75,"pict","new","new",1,1.619342
"524",101,76,"pict","new","new",1,1.307352
"525",101,77,"pict","new","new",1,1.709027
"526",101,78,"pict","new","new",1,0.969146
"527",101,79,"pict","new","new",1,4.818933
"528",101,80,"pict","old","new",0,1.531975
"529",101,81,"pict","old","old",1,1.508159
"530",101,82,"pict","new","new",1,2.121699
"531",101,83,"pict","new","new",1,1.174424
"532",101,84,"pict","new","new",1,1.420945
"533",101,85,"pict","old","old",1,2.243719
"534",101,86,"pict","old","old",1,1.472115
"535",101,87,"pict","old","old",1,1.165572
"536",101,88,"pict","new","new",1,1.791844
"537",101,89,"pict","new","new",1,1.375379
"538",101,90,"pict","new","old",0,2.244792
"539",101,91,"pict","new","new",1,3.104511
"540",101,92,"pict","old","old",1,1.693018
"541",101,93,"pict","old","old",1,1.073577
"542",101,94,"pict","new","new",1,2.047315
"543",101,95,"pict","old","new",0,1.477842
"544",101,96,"pict","old","new",0,1.501401
"545",101,97,"pict","new","new",1,1.19745
"546",101,98,"pict","old","old",1,1.807824
"547",101,99,"pict","new","new",1,1.367025
"548",101,100,"pict","old","old",1,1.144109
"549",101,101,"pict","old","old",1,1.656739
"550",101,102,"pict","old","new",0,5.171971
"551",101,103,"pict","old","old",1,1.692421
"552",101,104,"pict","new","new",1,1.706685
"553",101,105,"pict","old","old",1,1.706052
"554",101,106,"pict","old","old",1,1.380058
"555",101,107,"pict","old","old",1,1.395601
"556",101,108,"pict","new","new",1,1.306485
"557",101,109,"pict","old","new",0,2.237218
"558",101,110,"pict","old","new",0,1.712004
"559",101,111,"pict","old","new",0,1.28902
"560",101,112,"pict","new","new",1,0.986509
"561",101,113,"aud","old","new",0,4.258877
"562",101,114,"aud","new","new",1,6.972438
"563",101,115,"aud","old","old",1,0.872216
"564",101,116,"aud","old","old",1,1.054747
"565",101,117,"aud","new","new",1,0.764266
"566",101,118,"aud","old","new",0,0.652532
"567",101,119,"aud","old","new",0,0.760925
"568",101,120,"aud","old","old",1,0.870576
"569",101,121,"aud","new","new",1,0.856692
"570",101,122,"aud","old","old",1,0.763334
"571",101,123,"aud","new","new",1,0.754407
"572",101,124,"aud","new","new",1,1.072933
"573",101,125,"aud","new","new",1,0.759173
"574",101,126,"aud","old","old",1,1.16698
"575",101,127,"aud","old","old",1,0.542832
"576",101,128,"aud","old","old",1,0.761357
"577",101,129,"aud","old","old",1,0.745849
"578",101,130,"aud","new","new",1,0.767045
"579",101,131,"aud","new","new",1,0.745776
"580",101,132,"aud","new","new",1,0.652348
"581",101,133,"aud","old","old",1,0.433521
"582",101,134,"aud","old","old",1,0.652328
"583",101,135,"aud","new","new",1,0.761588
"584",101,136,"aud","old","old",1,0.85691
"585",101,137,"aud","new","new",1,1.847613
"586",101,138,"aud","new","new",1,0.54279
"587",101,139,"aud","new","new",1,0.433463
"588",101,140,"aud","new","new",1,3.053944
"589",101,141,"aud","new","old",0,0.763189
"590",101,142,"aud","new","new",1,1.937367
"591",101,143,"aud","old","new",0,4.489874
"592",101,144,"aud","old","old",1,0.761383
"593",101,145,"aud","new","new",1,0.855841
"594",101,146,"aud","old","new",0,0.761272
"595",101,147,"aud","old","new",0,0.652231
"596",101,148,"aud","new","new",1,0.870524
"597",101,149,"aud","old","new",0,0.652063
"598",101,150,"aud","old","new",0,3.812687
"599",101,151,"aud","old","new",0,0.763325
"600",101,152,"aud","old","old",1,0.42599
"601",101,153,"aud","old","old",1,0.657025
"602",101,154,"aud","old","new",0,0.652408
"603",101,155,"aud","new","new",1,0.660651
"604",101,156,"aud","new","new",1,0.542878
"605",101,157,"aud","old","new",0,0.761411
"606",101,158,"aud","new","new",1,1.815863
"607",101,159,"aud","new","old",0,0.655622
"608",101,160,"aud","old","new",0,0.844294
"609",101,161,"aud","new","new",1,0.542904
"610",101,162,"aud","old","old",1,0.871474
"611",101,163,"aud","old","old",1,0.960905
"612",101,164,"aud","new","new",1,0.433011
"613",101,165,"aud","new","new",1,0.435233
"614",101,166,"aud","old","old",1,0.761524
"615",101,167,"aud","new","new",1,0.747654
"616",101,168,"aud","old","old",1,0.761851
"617",101,169,"aud","new","new",1,0.855222
"618",101,170,"aud","old","old",1,0.653436
"619",101,171,"aud","old","old",1,0.652282
"620",101,172,"aud","new","new",1,0.965274
"621",101,173,"aud","old","old",1,0.652254
"622",101,174,"aud","new","new",1,0.766088
"623",101,175,"aud","old","old",1,0.746134
"624",101,176,"aud","new","new",1,0.846434
"625",101,177,"aud","new","new",1,0.854939
"626",101,178,"aud","new","new",1,0.760676
"627",101,179,"aud","new","new",1,0.6522
"628",101,180,"aud","old","new",0,1.089044
"629",101,181,"aud","new","new",1,2.276543
"630",101,182,"aud","new","new",1,0.761477
"631",101,183,"aud","old","old",1,0.958795
"632",101,184,"aud","new","new",1,0.761601
"633",101,185,"aud","new","new",1,0.761484
"634",101,186,"aud","new","new",1,1.19829
"635",101,187,"aud","old","old",1,2.024773
"636",101,188,"aud","old","new",0,0.651207
"637",101,189,"aud","old","old",1,0.745985
"638",101,190,"aud","old","old",1,0.652288
"639",101,191,"aud","old","new",0,1.199256
"640",101,192,"aud","old","old",1,1.416499
"641",101,193,"aud","new","new",1,1.291923
"642",101,194,"aud","new","new",1,1.182732
"643",101,195,"aud","new","new",1,0.979879
"644",101,196,"aud","new","new",1,0.761669
"645",101,197,"aud","old","old",1,0.653976
"646",101,198,"aud","old","new",0,1.184595
"647",101,199,"aud","new","new",1,0.864657
"648",101,200,"aud","new","new",1,0.763339
"649",101,201,"aud","new","new",1,0.43359
"650",101,202,"aud","new","new",1,0.433504
"651",101,203,"aud","old","new",0,0.433583
"652",101,204,"aud","new","new",1,0.652302
"653",101,205,"aud","old","new",0,0.543123
"654",101,206,"aud","new","new",1,0.870832
"655",101,207,"aud","new","new",1,0.762967
"656",101,208,"aud","new","new",1,0.979905
"657",101,209,"aud","new","new",1,0.761499
"658",101,210,"aud","new","old",0,0.855116
"659",101,211,"aud","old","new",0,0.94228
"660",101,212,"aud","new","new",1,0.545039
"661",101,213,"aud","new","new",1,0.652339
"662",101,214,"aud","old","old",1,0.638394
"663",101,215,"aud","old","old",1,0.761604
"664",101,216,"aud","old","new",0,0.948783
"665",101,217,"aud","old","old",1,0.747644
"666",101,218,"aud","old","old",1,0.654048
"667",101,219,"aud","old","old",1,0.542199
"668",101,220,"aud","old","new",0,0.950441
"669",101,221,"aud","new","new",1,0.935837
"670",101,222,"aud","old","old",1,0.655199
"671",101,223,"aud","old","old",1,0.433524
"672",101,224,"aud","new","new",1,1.059608
"673",102,1,"aud","new","new",1,1.190342
"674",102,2,"aud","old","new",0,0.652276
"675",102,3,"aud","new","new",1,0.54254
"676",102,4,"aud","new","old",0,0.74584
"677",102,5,"aud","old","old",1,0.550588
"678",102,6,"aud","new","new",1,1.291804
"679",102,7,"aud","new","new",1,0.761406
"680",102,8,"aud","old","new",0,0.542926
"681",102,9,"aud","new","new",1,0.324243
"682",102,10,"aud","new","new",1,0.324334
"683",102,11,"aud","old","new",0,0.740248
"684",102,12,"aud","old","old",1,0.330659
"685",102,13,"aud","old","old",1,0.635433
"686",102,14,"aud","new","new",1,1.179174
"687",102,15,"aud","old","old",1,0.311902
"688",102,16,"aud","old","old",1,0.324263
"689",102,17,"aud","new","new",1,0.433866
"690",102,18,"aud","new","new",1,0.652291
"691",102,19,"aud","new","new",1,0.323576
"692",102,20,"aud","old","new",0,0.543125
"693",102,21,"aud","old","old",1,0.43369
"694",102,22,"aud","new","new",1,0.324441
"695",102,23,"aud","old","old",1,0.324039
"696",102,24,"aud","new","old",0,0.527388
"697",102,25,"aud","old","old",1,0.324491
"698",102,26,"aud","new","new",1,0.324233
"699",102,27,"aud","new","old",0,0.633202
"700",102,28,"aud","new","new",1,0.542627
"701",102,29,"aud","new","new",1,0.328456
"702",102,30,"aud","old","new",0,0.324133
"703",102,31,"aud","old","old",1,0.324611
"704",102,32,"aud","new","new",1,0.324581
"705",102,33,"aud","old","old",1,0.433825
"706",102,34,"aud","old","old",1,0.324224
"707",102,35,"aud","old","new",0,0.761301
"708",102,36,"aud","new","new",1,0.742754
"709",102,37,"aud","new","new",1,0.324281
"710",102,38,"aud","new","old",0,0.745938
"711",102,39,"aud","old","new",0,0.32434
"712",102,40,"aud","old","new",0,0.324289
"713",102,41,"aud","old","new",0,0.324503
"714",102,42,"aud","new","old",0,0.324432
"715",102,43,"aud","old","new",0,0.542905
"716",102,44,"aud","new","new",1,0.638832
"717",102,45,"aud","new","old",0,0.76489
"718",102,46,"aud","new","new",1,0.433386
"719",102,47,"aud","old","new",0,0.324271
"720",102,48,"aud","old","old",1,0.546098
"721",102,49,"aud","old","old",1,0.32497
"722",102,50,"aud","old","new",0,0.648466
"723",102,51,"aud","old","old",1,0.527336
"724",102,52,"aud","old","old",1,0.543095
"725",102,53,"aud","new","new",1,0.842774
"726",102,54,"aud","new","old",0,0.543861
"727",102,55,"aud","new","new",1,0.964417
"728",102,56,"aud","old","old",1,0.652311
"729",102,57,"aud","old","old",1,0.543069
"730",102,58,"aud","new","new",1,0.52935
"731",102,59,"aud","old","old",1,0.870942
"732",102,60,"aud","old","old",1,0.324718
"733",102,61,"aud","new","new",1,0.745968
"734",102,62,"aud","old","new",0,0.652294
"735",102,63,"aud","new","new",1,0.324709
"736",102,64,"aud","old","old",1,0.652167
"737",102,65,"aud","old","old",1,0.87058
"738",102,66,"aud","old","new",0,0.746448
"739",102,67,"aud","old","old",1,0.654955
"740",102,68,"aud","new","old",0,0.324148
"741",102,69,"aud","old","old",1,0.433727
"742",102,70,"aud","old","new",0,0.654011
"743",102,71,"aud","new","new",1,0.52844
"744",102,72,"aud","new","new",1,0.324312
"745",102,73,"aud","old","new",0,0.542959
"746",102,74,"aud","new","new",1,0.326336
"747",102,75,"aud","old","new",0,0.850877
"748",102,76,"aud","new","new",1,0.761371
"749",102,77,"aud","old","new",0,0.543015
"750",102,78,"aud","old","old",1,0.839431
"751",102,79,"aud","new","new",1,0.646905
"752",102,80,"aud","new","new",1,0.651395
"753",102,81,"aud","old","old",1,0.745934
"754",102,82,"aud","new","new",1,0.661854
"755",102,83,"aud","new","new",1,0.433429
"756",102,84,"aud","new","new",1,1.198127
"757",102,85,"aud","old","new",0,0.324506
"758",102,86,"aud","new","new",1,0.74606
"759",102,87,"aud","new","new",1,0.32292
"760",102,88,"aud","old","old",1,0.32444
"761",102,89,"aud","new","old",0,0.435599
"762",102,90,"aud","new","new",1,0.964412
"763",102,91,"aud","old","old",1,0.324408
"764",102,92,"aud","old","old",1,0.315558
"765",102,93,"aud","old","old",1,0.324296
"766",102,94,"aud","old","old",1,0.324755
"767",102,95,"aud","new","new",1,0.434002
"768",102,96,"aud","old","new",0,0.324386
"769",102,97,"aud","old","new",0,0.324724
"770",102,98,"aud","new","new",1,0.543086
"771",102,99,"aud","new","new",1,0.318851
"772",102,100,"aud","new","new",1,0.324418
"773",102,101,"aud","new","new",1,0.652138
"774",102,102,"aud","old","old",1,0.327733
"775",102,103,"aud","old","new",0,0.542949
"776",102,104,"aud","new","new",1,0.433999
"777",102,105,"aud","new","new",1,0.760986
"778",102,106,"aud","old","new",0,0.636714
"779",102,107,"aud","new","new",1,0.652326
"780",102,108,"aud","old","new",0,0.315688
"781",102,109,"aud","new","new",1,0.979846
"782",102,110,"aud","old","new",0,0.871142
"783",102,111,"aud","new","new",1,0.65253
"784",102,112,"aud","new","new",1,0.761454
"785",102,113,"pict","old","old",1,2.641185
"786",102,114,"pict","old","old",1,0.963405
"787",102,115,"pict","old","old",1,1.966762
"788",102,116,"pict","new","new",1,1.377532
"789",102,117,"pict","new","new",1,1.172194
"790",102,118,"pict","new","new",1,1.08113
"791",102,119,"pict","old","old",1,1.294554
"792",102,120,"pict","new","new",1,1.274272
"793",102,121,"pict","old","old",1,1.160858
"794",102,122,"pict","old","old",1,1.599882
"795",102,123,"pict","new","new",1,1.48456
"796",102,124,"pict","old","old",1,1.449756
"797",102,125,"pict","new","new",1,1.477278
"798",102,126,"pict","new","new",1,0.961637
"799",102,127,"pict","old","new",0,0.971206
"800",102,128,"pict","old","new",0,1.464667
"801",102,129,"pict","old","old",1,1.386008
"802",102,130,"pict","new","new",1,1.361488
"803",102,131,"pict","new","new",1,1.247617
"804",102,132,"pict","new","new",1,0.966168
"805",102,133,"pict","old","old",1,1.27277
"806",102,134,"pict","old","new",0,1.482803
"807",102,135,"pict","old","new",0,1.059103
"808",102,136,"pict","new","new",1,1.068459
"809",102,137,"pict","old","old",1,1.278177
"810",102,138,"pict","new","new",1,1.483579
"811",102,139,"pict","new","old",0,1.677211
"812",102,140,"pict","new","new",1,1.371346
"813",102,141,"pict","old","old",1,1.369054
"814",102,142,"pict","new","new",1,1.141314
"815",102,143,"pict","old","new",0,1.259659
"816",102,144,"pict","new","new",1,1.334814
"817",102,145,"pict","new","new",1,0.961686
"818",102,146,"pict","new","new",1,1.967829
"819",102,147,"pict","new","new",1,1.304764
"820",102,148,"pict","new","new",1,1.087593
"821",102,149,"pict","new","new",1,1.414167
"822",102,150,"pict","new","new",1,1.076648
"823",102,151,"pict","new","new",1,1.064007
"824",102,152,"pict","new","new",1,1.087093
"825",102,153,"pict","old","old",1,1.399291
"826",102,154,"pict","old","old",1,1.38189
"827",102,155,"pict","old","new",0,1.513592
"828",102,156,"pict","old","old",1,1.378585
"829",102,157,"pict","new","new",1,1.149634
"830",102,158,"pict","old","old",1,1.660033
"831",102,159,"pict","new","new",1,1.263279
"832",102,160,"pict","new","new",1,1.086566
"833",102,161,"pict","new","new",1,1.084342
"834",102,162,"pict","new","new",1,0.879326
"835",102,163,"pict","new","new",1,1.309878
"836",102,164,"pict","new","new",1,0.878497
"837",102,165,"pict","old","old",1,1.508563
"838",102,166,"pict","old","new",0,1.178089
"839",102,167,"pict","old","old",1,1.797265
"840",102,168,"pict","old","old",1,1.193372
"841",102,169,"pict","new","new",1,1.180389
"842",102,170,"pict","old","old",1,1.266482
"843",102,171,"pict","old","old",1,1.391409
"844",102,172,"pict","old","new",0,1.477898
"845",102,173,"pict","new","new",1,1.383334
"846",102,174,"pict","new","new",1,1.15112
"847",102,175,"pict","old","new",0,0.958013
"848",102,176,"pict","old","new",0,1.353626
"849",102,177,"pict","old","new",0,1.257731
"850",102,178,"pict","old","new",0,1.069316
"851",102,179,"pict","old","new",0,1.17621
"852",102,180,"pict","new","new",1,1.178437
"853",102,181,"pict","new","new",1,0.980637
"854",102,182,"pict","old","new",0,0.854541
"855",102,183,"pict","old","new",0,0.980505
"856",102,184,"pict","new","new",1,1.206316
"857",102,185,"pict","old","new",0,1.096216
"858",102,186,"pict","old","new",0,0.98429
"859",102,187,"pict","old","new",0,1.307322
"860",102,188,"pict","new","new",1,0.986442
"861",102,189,"pict","new","new",1,0.984987
"862",102,190,"pict","new","new",1,0.977117
"863",102,191,"pict","old","new",0,0.962253
"864",102,192,"pict","old","new",0,1.087444
"865",102,193,"pict","old","new",0,0.962111
"866",102,194,"pict","old","new",0,1.419484
"867",102,195,"pict","new","new",1,0.98127
"868",102,196,"pict","old","new",0,0.972528
"869",102,197,"pict","old","new",0,1.087156
"870",102,198,"pict","new","new",1,0.975105
"871",102,199,"pict","old","new",0,0.987093
"872",102,200,"pict","new","new",1,1.074169
"873",102,201,"pict","new","new",1,0.986857
"874",102,202,"pict","old","new",0,0.978145
"875",102,203,"pict","old","new",0,0.980588
"876",102,204,"pict","new","new",1,1.204891
"877",102,205,"pict","new","new",1,0.987191
"878",102,206,"pict","old","new",0,0.976112
"879",102,207,"pict","old","new",0,0.973603
"880",102,208,"pict","new","new",1,0.984904
"881",102,209,"pict","new","new",1,0.975686
"882",102,210,"pict","new","new",1,0.976785
"883",102,211,"pict","old","new",0,1.094493
"884",102,212,"pict","new","new",1,0.876014
"885",102,213,"pict","old","new",0,1.084015
"886",102,214,"pict","new","new",1,0.975288
"887",102,215,"pict","old","old",1,1.599852
"888",102,216,"pict","new","new",1,1.166765
"889",102,217,"pict","old","old",1,1.371413
"890",102,218,"pict","new","new",1,1.15085
"891",102,219,"pict","new","new",1,1.072864
"892",102,220,"pict","old","old",1,1.624502
"893",102,221,"pict","new","new",1,1.070194
"894",102,222,"pict","old","old",1,1.282911
"895",102,223,"pict","new","new",1,1.996127
"896",102,224,"pict","old","new",0,1.19056
"897",103,1,"pict","old","old",1,2.345228
"898",103,2,"pict","old","old",1,1.530854
"899",103,3,"pict","old","old",1,1.089024
"900",103,4,"pict","old","old",1,1.301148
"901",103,5,"pict","new","new",1,1.59003
"902",103,6,"pict","old","old",1,1.376939
"903",103,7,"pict","new","new",1,1.29171
"904",103,8,"pict","old","old",1,1.258399
"905",103,9,"pict","new","new",1,1.881566
"906",103,10,"pict","old","old",1,1.165725
"907",103,11,"pict","old","old",1,1.378361
"908",103,12,"pict","old","new",0,1.603107
"909",103,13,"pict","old","old",1,2.676074
"910",103,14,"pict","new","new",1,1.693304
"911",103,15,"pict","new","new",1,1.586995
"912",103,16,"pict","new","new",1,1.563556
"913",103,17,"pict","new","new",1,1.477093
"914",103,18,"pict","new","new",1,1.919685
"915",103,19,"pict","new","new",1,1.618555
"916",103,20,"pict","new","new",1,1.627573
"917",103,21,"pict","new","new",1,1.525687
"918",103,22,"pict","old","old",1,1.596306
"919",103,23,"pict","new","new",1,1.588613
"920",103,24,"pict","new","new",1,1.300384
"921",103,25,"pict","old","old",1,1.494611
"922",103,26,"pict","new","new",1,1.478214
"923",103,27,"pict","old","new",0,1.401386
"924",103,28,"pict","old","old",1,1.602389
"925",103,29,"pict","new","old",0,2.16123
"926",103,30,"pict","new","new",1,1.712773
"927",103,31,"pict","old","old",1,2.601546
"928",103,32,"pict","new","new",1,1.499106
"929",103,33,"pict","old","old",1,1.501119
"930",103,34,"pict","new","old",0,1.624284
"931",103,35,"pict","new","new",1,2.26513
"932",103,36,"pict","new","new",1,1.799295
"933",103,37,"pict","new","new",1,1.358907
"934",103,38,"pict","new","new",1,1.263578
"935",103,39,"pict","old","old",1,1.396348
"936",103,40,"pict","new","old",0,4.012835
"937",103,41,"pict","old","old",1,1.093935
"938",103,42,"pict","old","old",1,1.085541
"939",103,43,"pict","old","old",1,0.975516
"940",103,44,"pict","new","new",1,1.816495
"941",103,45,"pict","old","old",1,1.471076
"942",103,46,"pict","old","old",1,1.185985
"943",103,47,"pict","old","new",0,1.515812
"944",103,48,"pict","new","new",1,1.198899
"945",103,49,"pict","new","new",1,2.105834
"946",103,50,"pict","new","new",1,1.299464
"947",103,51,"pict","old","old",1,1.596952
"948",103,52,"pict","old","old",1,1.481255
"949",103,53,"pict","new","new",1,1.610515
"950",103,54,"pict","new","new",1,1.38
"951",103,55,"pict","new","new",1,1.096684
"952",103,56,"pict","old","old",1,1.387811
"953",103,57,"pict","old","old",1,1.081721
"954",103,58,"pict","new","new",1,1.499402
"955",103,59,"pict","new","new",1,1.695092
"956",103,60,"pict","old","old",1,1.686733
"957",103,61,"pict","old","old",1,1.205603
"958",103,62,"pict","new","new",1,1.39842
"959",103,63,"pict","new","new",1,1.281005
"960",103,64,"pict","new","new",1,1.364588
"961",103,65,"pict","old","new",0,1.175597
"962",103,66,"pict","new","old",0,1.5911
"963",103,67,"pict","old","new",0,1.570944
"964",103,68,"pict","new","old",0,1.569893
"965",103,69,"pict","new","new",1,1.273026
"966",103,70,"pict","new","new",1,1.258959
"967",103,71,"pict","old","old",1,1.588355
"968",103,72,"pict","old","new",0,1.906611
"969",103,73,"pict","old","old",1,1.488621
"970",103,74,"pict","old","old",1,1.088315
"971",103,75,"pict","old","old",1,1.088254
"972",103,76,"pict","old","old",1,1.094161
"973",103,77,"pict","old","old",1,1.0847
"974",103,78,"pict","old","new",0,1.403589
"975",103,79,"pict","new","new",1,1.181024
"976",103,80,"pict","new","new",1,1.18546
"977",103,81,"pict","old","new",0,1.74371
"978",103,82,"pict","old","old",1,1.603062
"979",103,83,"pict","new","new",1,1.499865
"980",103,84,"pict","old","old",1,1.482949
"981",103,85,"pict","old","old",1,1.292789
"982",103,86,"pict","new","new",1,1.608971
"983",103,87,"pict","old","new",0,2.155133
"984",103,88,"pict","old","new",0,1.594501
"985",103,89,"pict","old","old",1,1.792005
"986",103,90,"pict","old","old",1,1.734316
"987",103,91,"pict","old","old",1,2.778224
"988",103,92,"pict","old","new",0,1.385905
"989",103,93,"pict","new","new",1,1.531424
"990",103,94,"pict","new","new",1,1.19574
"991",103,95,"pict","new","new",1,1.276204
"992",103,96,"pict","old","old",1,2.022086
"993",103,97,"pict","new","new",1,1.718829
"994",103,98,"pict","new","new",1,1.094657
"995",103,99,"pict","new","new",1,1.185173
"996",103,100,"pict","new","new",1,2.02751
"997",103,101,"pict","new","new",1,1.293824
"998",103,102,"pict","old","new",0,1.525301
"999",103,103,"pict","old","old",1,1.605265
"1000",103,104,"pict","old","old",1,1.171935
"1001",103,105,"pict","old","new",0,1.49275
"1002",103,106,"pict","new","new",1,1.177006
"1003",103,107,"pict","new","new",1,1.305853
"1004",103,108,"pict","new","new",1,1.962594
"1005",103,109,"pict","new","new",1,1.307607
"1006",103,110,"pict","old","new",0,1.414193
"1007",103,111,"pict","new","new",1,1.081753
"1008",103,112,"pict","old","old",1,2.126759
"1009",103,113,"aud","old","old",1,1.806273
"1010",103,114,"aud","new","new",1,0.981579
"1011",103,115,"aud","old","old",1,0.87246
"1012",103,116,"aud","old","old",1,0.870489
"1013",103,117,"aud","new","new",1,0.860899
"1014",103,118,"aud","new","new",1,0.872423
"1015",103,119,"aud","new","new",1,0.870583
"1016",103,120,"aud","new","old",0,0.876522
"1017",103,121,"aud","old","old",1,0.870532
"1018",103,122,"aud","old","old",1,0.97978
"1019",103,123,"aud","new","new",1,1.168915
"1020",103,124,"aud","new","new",1,0.849989
"1021",103,125,"aud","old","old",1,0.981089
"1022",103,126,"aud","old","old",1,0.979731
"1023",103,127,"aud","old","old",1,0.854521
"1024",103,128,"aud","old","old",1,0.870604
"1025",103,129,"aud","new","new",1,0.855226
"1026",103,130,"aud","old","old",1,0.872244
"1027",103,131,"aud","old","new",0,2.259048
"1028",103,132,"aud","new","new",1,0.86424
"1029",103,133,"aud","new","new",1,0.984853
"1030",103,134,"aud","new","old",0,1.059511
"1031",103,135,"aud","old","old",1,0.854563
"1032",103,136,"aud","old","new",0,1.057877
"1033",103,137,"aud","new","new",1,0.981574
"1034",103,138,"aud","new","old",0,0.754244
"1035",103,139,"aud","old","old",1,0.85501
"1036",103,140,"aud","old","old",1,0.870696
"1037",103,141,"aud","old","old",1,0.754582
"1038",103,142,"aud","old","old",1,0.754278
"1039",103,143,"aud","new","new",1,0.963983
"1040",103,144,"aud","new","new",1,0.872598
"1041",103,145,"aud","old","old",1,1.088942
"1042",103,146,"aud","old","old",1,1.276129
"1043",103,147,"aud","old","old",1,1.088522
"1044",103,148,"aud","old","new",0,1.151472
"1045",103,149,"aud","old","old",1,1.402618
"1046",103,150,"aud","new","old",0,0.870414
"1047",103,151,"aud","new","new",1,0.870599
"1048",103,152,"aud","old","old",1,1.057934
"1049",103,153,"aud","new","old",0,0.872471
"1050",103,154,"aud","old","old",1,0.870634
"1051",103,155,"aud","new","new",1,0.859113
"1052",103,156,"aud","old","old",1,0.870852
"1053",103,157,"aud","new","new",1,1.309286
"1054",103,158,"aud","new","new",1,0.874497
"1055",103,159,"aud","new","new",1,1.073348
"1056",103,160,"aud","new","old",0,0.856908
"1057",103,161,"aud","old","old",1,0.870563
"1058",103,162,"aud","new","new",1,0.866642
"1059",103,163,"aud","new","new",1,0.86987
"1060",103,164,"aud","old","old",1,0.964415
"1061",103,165,"aud","old","old",1,0.870643
"1062",103,166,"aud","old","old",1,0.87059
"1063",103,167,"aud","old","old",1,0.870805
"1064",103,168,"aud","old","old",1,0.870882
"1065",103,169,"aud","old","old",1,0.87067
"1066",103,170,"aud","new","new",1,1.057928
"1067",103,171,"aud","new","new",1,0.87081
"1068",103,172,"aud","old","old",1,0.966156
"1069",103,173,"aud","old","old",1,0.870713
"1070",103,174,"aud","old","old",1,0.870772
"1071",103,175,"aud","new","new",1,0.86733
"1072",103,176,"aud","old","old",1,0.973155
"1073",103,177,"aud","old","old",1,1.089069
"1074",103,178,"aud","new","old",0,0.87082
"1075",103,179,"aud","new","new",1,0.874438
"1076",103,180,"aud","new","old",0,1.261578
"1077",103,181,"aud","new","new",1,1.096294
"1078",103,182,"aud","new","old",0,0.966189
"1079",103,183,"aud","old","old",1,0.870739
"1080",103,184,"aud","old","old",1,0.870521
"1081",103,185,"aud","old","old",1,0.870634
"1082",103,186,"aud","old","old",1,0.964267
"1083",103,187,"aud","old","old",1,0.87067
"1084",103,188,"aud","new","old",0,2.338832
"1085",103,189,"aud","new","old",0,0.97986
"1086",103,190,"aud","new","new",1,1.090565
"1087",103,191,"aud","old","old",1,1.269209
"1088",103,192,"aud","new","new",1,1.606758
"1089",103,193,"aud","old","old",1,0.980218
"1090",103,194,"aud","new","new",1,1.045375
"1091",103,195,"aud","new","new",1,0.87033
"1092",103,196,"aud","old","new",0,0.870651
"1093",103,197,"aud","new","new",1,0.98
"1094",103,198,"aud","new","new",1,0.870706
"1095",103,199,"aud","old","old",1,0.762064
"1096",103,200,"aud","new","old",0,0.870694
"1097",103,201,"aud","new","new",1,1.090598
"1098",103,202,"aud","new","old",0,0.869369
"1099",103,203,"aud","old","old",1,0.870657
"1100",103,204,"aud","old","old",1,0.870795
"1101",103,205,"aud","old","new",0,0.974068
"1102",103,206,"aud","old","old",1,1.074617
"1103",103,207,"aud","new","new",1,0.856988
"1104",103,208,"aud","new","new",1,1.089031
"1105",103,209,"aud","new","old",0,0.85712
"1106",103,210,"aud","new","new",1,1.067315
"1107",103,211,"aud","old","new",0,1.089194
"1108",103,212,"aud","old","new",0,0.87066
"1109",103,213,"aud","new","new",1,0.870807
"1110",103,214,"aud","old","old",1,0.855273
"1111",103,215,"aud","new","new",1,0.953854
"1112",103,216,"aud","new","new",1,0.756647
"1113",103,217,"aud","new","new",1,0.870668
"1114",103,218,"aud","new","old",0,2.539878
"1115",103,219,"aud","old","old",1,0.97995
"1116",103,220,"aud","new","new",1,0.857072
"1117",103,221,"aud","old","old",1,1.167255
"1118",103,222,"aud","new","new",1,0.763204
"1119",103,223,"aud","new","new",1,0.963967
"1120",103,224,"aud","old","old",1,0.981753
"1121",104,1,"aud","old","old",1,1.060825
"1122",104,2,"aud","new","old",0,0.65219
"1123",104,3,"aud","old","old",1,0.847457
"1124",104,4,"aud","new","new",1,0.651756
"1125",104,5,"aud","old","old",1,0.861865
"1126",104,6,"aud","new","new",1,0.984986
"1127",104,7,"aud","old","old",1,0.964141
"1128",104,8,"aud","new","new",1,1.090557
"1129",104,9,"aud","new","new",1,0.433703
"1130",104,10,"aud","new","new",1,0.543021
"1131",104,11,"aud","old","old",1,0.324129
"1132",104,12,"aud","new","new",1,1.089011
"1133",104,13,"aud","new","old",0,0.319173
"1134",104,14,"aud","new","new",1,0.874341
"1135",104,15,"aud","old","old",1,0.324452
"1136",104,16,"aud","old","old",1,0.324299
"1137",104,17,"aud","new","old",0,16.704033
"1138",104,18,"aud","old","old",1,0.857129
"1139",104,19,"aud","old","old",1,0.323972
"1140",104,20,"aud","old","old",1,0.324228
"1141",104,21,"aud","old","old",1,0.324321
"1142",104,22,"aud","new","new",1,1.978468
"1143",104,23,"aud","new","old",0,0.418296
"1144",104,24,"aud","new","new",1,0.324417
"1145",104,25,"aud","old","old",1,0.636079
"1146",104,26,"aud","new","new",1,0.324308
"1147",104,27,"aud","new","new",1,0.857864
"1148",104,28,"aud","new","old",0,0.950049
"1149",104,29,"aud","old","old",1,0.324546
"1150",104,30,"aud","new","new",1,0.854964
"1151",104,31,"aud","old","old",1,0.324539
"1152",104,32,"aud","old","old",1,0.979354
"1153",104,33,"aud","new","old",0,0.651952
"1154",104,34,"aud","old","new",0,0.652103
"1155",104,35,"aud","old","old",1,0.964174
"1156",104,36,"aud","old","old",1,0.745938
"1157",104,37,"aud","new","new",1,0.854921
"1158",104,38,"aud","old","old",1,0.324665
"1159",104,39,"aud","old","old",1,0.324573
"1160",104,40,"aud","old","new",0,0.651883
"1161",104,41,"aud","new","new",1,0.656575
"1162",104,42,"aud","old","old",1,0.324284
"1163",104,43,"aud","old","old",1,0.323887
"1164",104,44,"aud","old","old",1,2.165677
"1165",104,45,"aud","new","old",0,1.619447
"1166",104,46,"aud","new","new",1,0.433759
"1167",104,47,"aud","new","new",1,1.088871
"1168",104,48,"aud","new","old",0,0.527223
"1169",104,49,"aud","new","old",0,0.324335
"1170",104,50,"aud","old","old",1,0.761343
"1171",104,51,"aud","new","new",1,0.949924
"1172",104,52,"aud","old","old",1,0.745363
"1173",104,53,"aud","old","old",1,1.36982
"1174",104,54,"aud","old","old",1,0.979984
"1175",104,55,"aud","old","old",1,0.543067
"1176",104,56,"aud","old","old",1,0.652092
"1177",104,57,"aud","new","old",0,0.652312
"1178",104,58,"aud","old","old",1,0.870806
"1179",104,59,"aud","new","new",1,1.08926
"1180",104,60,"aud","old","old",1,1.057993
"1181",104,61,"aud","old","new",0,0.653984
"1182",104,62,"aud","new","old",0,1.401075
"1183",104,63,"aud","new","old",0,0.870733
"1184",104,64,"aud","new","new",1,0.761518
"1185",104,65,"aud","old","old",1,1.51022
"1186",104,66,"aud","new","old",0,2.85176
"1187",104,67,"aud","old","old",1,0.761347
"1188",104,68,"aud","old","old",1,1.088882
"1189",104,69,"aud","new","old",0,0.761435
"1190",104,70,"aud","new","new",1,1.478863
"1191",104,71,"aud","old","old",1,2.040157
"1192",104,72,"aud","old","old",1,0.76589
"1193",104,73,"aud","new","old",0,0.76113
"1194",104,74,"aud","new","new",1,1.189027
"1195",104,75,"aud","new","old",0,2.13411
"1196",104,76,"aud","new","new",1,0.856479
"1197",104,77,"aud","new","old",0,1.08896
"1198",104,78,"aud","new","old",0,0.855081
"1199",104,79,"aud","old","old",1,1.059467
"1200",104,80,"aud","old","old",1,0.962459
"1201",104,81,"aud","new","new",1,1.072919
"1202",104,82,"aud","old","old",1,1.496397
"1203",104,83,"aud","new","old",0,0.652327
"1204",104,84,"aud","new","new",1,1.042314
"1205",104,85,"aud","old","old",1,0.964262
"1206",104,86,"aud","new","old",0,0.527769
"1207",104,87,"aud","old","old",1,0.747269
"1208",104,88,"aud","new","new",1,1.619288
"1209",104,89,"aud","old","old",1,2.460725
"1210",104,90,"aud","new","old",0,0.74517
"1211",104,91,"aud","old","old",1,0.979738
"1212",104,92,"aud","new","new",1,0.964361
"1213",104,93,"aud","new","old",0,0.964266
"1214",104,94,"aud","new","old",0,0.635667
"1215",104,95,"aud","old","old",1,1.884742
"1216",104,96,"aud","new","new",1,0.855016
"1217",104,97,"aud","new","new",1,1.089121
"1218",104,98,"aud","old","old",1,1.915921
"1219",104,99,"aud","old","old",1,0.32445
"1220",104,100,"aud","old","old",1,0.324404
"1221",104,101,"aud","old","old",1,0.433973
"1222",104,102,"aud","old","old",1,0.542524
"1223",104,103,"aud","new","old",0,0.324332
"1224",104,104,"aud","old","new",0,0.32444
"1225",104,105,"aud","old","old",1,0.31744
"1226",104,106,"aud","old","new",0,0.43589
"1227",104,107,"aud","new","new",1,0.861925
"1228",104,108,"aud","new","old",0,1.057973
"1229",104,109,"aud","old","old",1,4.473379
"1230",104,110,"aud","old","new",0,0.738885
"1231",104,111,"aud","new","old",0,0.43395
"1232",104,112,"aud","new","old",0,0.433945
"1233",104,113,"pict","new","old",0,0.329079
"1234",104,114,"pict","new","new",1,2.573105
"1235",104,115,"pict","old","old",1,1.913843
"1236",104,116,"pict","new","old",0,1.389901
"1237",104,117,"pict","old","new",0,1.406492
"1238",104,118,"pict","old","old",1,1.820622
"1239",104,119,"pict","old","old",1,1.58139
"1240",104,120,"pict","new","old",0,0.972881
"1241",104,121,"pict","old","old",1,1.067686
"1242",104,122,"pict","old","old",1,1.791899
"1243",104,123,"pict","new","new",1,1.069539
"1244",104,124,"pict","new","old",0,1.356151
"1245",104,125,"pict","new","new",1,1.489087
"1246",104,126,"pict","new","new",1,2.127309
"1247",104,127,"pict","new","new",1,1.836324
"1248",104,128,"pict","new","new",1,1.463874
"1249",104,129,"pict","new","old",0,0.836667
"1250",104,130,"pict","new","old",0,0.958186
"1251",104,131,"pict","new","new",1,1.620391
"1252",104,132,"pict","old","old",1,0.942057
"1253",104,133,"pict","old","old",1,0.980107
"1254",104,134,"pict","old","old",1,1.818021
"1255",104,135,"pict","old","old",1,2.111435
"1256",104,136,"pict","new","new",1,1.297909
"1257",104,137,"pict","new","new",1,2.45587
"1258",104,138,"pict","old","old",1,1.164282
"1259",104,139,"pict","new","old",0,0.971965
"1260",104,140,"pict","old","new",0,1.588552
"1261",104,141,"pict","new","new",1,1.274435
"1262",104,142,"pict","old","old",1,1.256099
"1263",104,143,"pict","old","old",1,0.87713
"1264",104,144,"pict","old","old",1,0.878123
"1265",104,145,"pict","new","new",1,1.043784
"1266",104,146,"pict","new","new",1,1.487931
"1267",104,147,"pict","old","old",1,0.947321
"1268",104,148,"pict","old","new",0,1.490962
"1269",104,149,"pict","new","new",1,1.340108
"1270",104,150,"pict","new","new",1,1.793867
"1271",104,151,"pict","old","old",1,0.94719
"1272",104,152,"pict","new","new",1,1.051311
"1273",104,153,"pict","old","new",0,1.257696
"1274",104,154,"pict","new","old",0,0.85658
"1275",104,155,"pict","old","old",1,1.174897
"1276",104,156,"pict","new","new",1,1.26968
"1277",104,157,"pict","new","old",0,1.1468
"1278",104,158,"pict","old","new",0,1.389797
"1279",104,159,"pict","new","new",1,1.073148
"1280",104,160,"pict","old","old",1,1.975797
"1281",104,161,"pict","old","old",1,0.98237
"1282",104,162,"pict","old","old",1,0.973542
"1283",104,163,"pict","old","new",0,1.258629
"1284",104,164,"pict","new","new",1,1.481124
"1285",104,165,"pict","old","new",0,0.52314
"1286",104,166,"pict","old","old",1,1.368658
"1287",104,167,"pict","new","new",1,1.169639
"1288",104,168,"pict","old","old",1,1.393741
"1289",104,169,"pict","new","old",0,0.976161
"1290",104,170,"pict","new","old",0,1.204248
"1291",104,171,"pict","old","new",0,1.67703
"1292",104,172,"pict","new","old",0,1.384792
"1293",104,173,"pict","old","new",0,1.397237
"1294",104,174,"pict","new","new",1,2.345134
"1295",104,175,"pict","new","new",1,1.378762
"1296",104,176,"pict","new","old",0,0.947284
"1297",104,177,"pict","old","old",1,1.097456
"1298",104,178,"pict","old","old",1,0.863912
"1299",104,179,"pict","old","old",1,1.19565
"1300",104,180,"pict","old","old",1,0.976991
"1301",104,181,"pict","old","old",1,2.009293
"1302",104,182,"pict","new","old",0,0.975296
"1303",104,183,"pict","new","new",1,1.914914
"1304",104,184,"pict","new","new",1,1.074189
"1305",104,185,"pict","new","new",1,1.47717
"1306",104,186,"pict","old","old",1,1.048842
"1307",104,187,"pict","old","old",1,0.981639
"1308",104,188,"pict","new","old",0,0.981465
"1309",104,189,"pict","new","new",1,1.512618
"1310",104,190,"pict","old","old",1,1.167163
"1311",104,191,"pict","old","new",0,1.591932
"1312",104,192,"pict","old","old",1,2.403267
"1313",104,193,"pict","old","new",0,2.355132
"1314",104,194,"pict","new","old",0,1.186848
"1315",104,195,"pict","old","new",0,1.518229
"1316",104,196,"pict","old","old",1,1.063036
"1317",104,197,"pict","old","old",1,1.156154
"1318",104,198,"pict","old","old",1,1.284745
"1319",104,199,"pict","old","old",1,0.986042
"1320",104,200,"pict","new","old",0,1.58626
"1321",104,201,"pict","new","new",1,1.775726
"1322",104,202,"pict","old","old",1,1.175154
"1323",104,203,"pict","old","old",1,0.980994
"1324",104,204,"pict","new","old",0,0.876452
"1325",104,205,"pict","new","old",0,0.757572
"1326",104,206,"pict","new","new",1,1.053825
"1327",104,207,"pict","old","old",1,0.945114
"1328",104,208,"pict","old","old",1,1.605729
"1329",104,209,"pict","new","new",1,1.166022
"1330",104,210,"pict","new","new",1,1.089273
"1331",104,211,"pict","new","new",1,1.201102
"1332",104,212,"pict","new","old",0,1.180438
"1333",104,213,"pict","new","new",1,1.391735
"1334",104,214,"pict","new","old",0,1.279839
"1335",104,215,"pict","old","new",0,1.182319
"1336",104,216,"pict","old","new",0,1.506203
"1337",104,217,"pict","old","old",1,2.165207
"1338",104,218,"pict","new","new",1,1.742117
"1339",104,219,"pict","old","old",1,1.496999
"1340",104,220,"pict","new","old",0,1.193056
"1341",104,221,"pict","new","new",1,1.269249
"1342",104,222,"pict","old","old",1,1.182663
"1343",104,223,"pict","old","old",1,1.306699
"1344",104,224,"pict","new","new",1,1.166365
"1345",105,1,"pict","new","new",1,1.811901
"1346",105,2,"pict","old","old",1,1.713038
"1347",105,3,"pict","new","new",1,1.475443
"1348",105,4,"pict","old","old",1,1.392566
"1349",105,5,"pict","old","old",1,1.37027
"1350",105,6,"pict","new","new",1,1.476125
"1351",105,7,"pict","new","new",1,1.507018
"1352",105,8,"pict","new","new",1,1.583749
"1353",105,9,"pict","old","old",1,1.344269
"1354",105,10,"pict","old","old",1,1.273071
"1355",105,11,"pict","new","new",1,1.972802
"1356",105,12,"pict","old","old",1,1.290283
"1357",105,13,"pict","old","new",0,2.12684
"1358",105,14,"pict","new","new",1,1.308674
"1359",105,15,"pict","old","new",0,1.193959
"1360",105,16,"pict","old","old",1,1.602395
"1361",105,17,"pict","new","new",1,1.601803
"1362",105,18,"pict","old","old",1,1.601694
"1363",105,19,"pict","new","new",1,1.507491
"1364",105,20,"pict","new","new",1,1.196627
"1365",105,21,"pict","new","new",1,1.422131
"1366",105,22,"pict","old","old",1,1.401255
"1367",105,23,"pict","new","new",1,1.406438
"1368",105,24,"pict","new","new",1,1.394361
"1369",105,25,"pict","new","new",1,1.406147
"1370",105,26,"pict","old","old",1,1.502233
"1371",105,27,"pict","new","old",0,1.912363
"1372",105,28,"pict","old","old",1,1.497729
"1373",105,29,"pict","new","new",1,1.592955
"1374",105,30,"pict","new","new",1,1.195652
"1375",105,31,"pict","old","old",1,1.483504
"1376",105,32,"pict","new","new",1,1.40429
"1377",105,33,"pict","new","new",1,1.28552
"1378",105,34,"pict","new","new",1,1.415023
"1379",105,35,"pict","old","old",1,1.613092
"1380",105,36,"pict","old","old",1,1.403485
"1381",105,37,"pict","old","old",1,1.488747
"1382",105,38,"pict","old","old",1,1.486424
"1383",105,39,"pict","new","new",1,1.488709
"1384",105,40,"pict","new","new",1,1.409317
"1385",105,41,"pict","old","old",1,1.701114
"1386",105,42,"pict","old","old",1,1.389575
"1387",105,43,"pict","new","new",1,1.686395
"1388",105,44,"pict","old","old",1,1.506353
"1389",105,45,"pict","old","old",1,1.407993
"1390",105,46,"pict","new","new",1,1.811316
"1391",105,47,"pict","old","old",1,1.50321
"1392",105,48,"pict","new","old",0,2.029442
"1393",105,49,"pict","old","old",1,1.59738
"1394",105,50,"pict","new","new",1,1.783557
"1395",105,51,"pict","old","old",1,1.924705
"1396",105,52,"pict","new","new",1,4.639277
"1397",105,53,"pict","new","new",1,1.513477
"1398",105,54,"pict","new","new",1,1.393726
"1399",105,55,"pict","old","new",0,1.503786
"1400",105,56,"pict","new","new",1,1.449716
"1401",105,57,"pict","new","new",1,1.50685
"1402",105,58,"pict","new","new",1,1.505125
"1403",105,59,"pict","new","new",1,1.370445
"1404",105,60,"pict","new","new",1,1.39132
"1405",105,61,"pict","new","new",1,2.143043
"1406",105,62,"pict","new","new",1,1.488082
"1407",105,63,"pict","old","old",1,2.125405
"1408",105,64,"pict","new","old",0,2.680761
"1409",105,65,"pict","old","old",1,1.493637
"1410",105,66,"pict","old","old",1,1.495885
"1411",105,67,"pict","old","old",1,1.506371
"1412",105,68,"pict","new","old",0,1.938129
"1413",105,69,"pict","new","new",1,1.591019
"1414",105,70,"pict","old","old",1,1.746596
"1415",105,71,"pict","new","new",1,1.802165
"1416",105,72,"pict","old","old",1,1.601294
"1417",105,73,"pict","new","new",1,1.698835
"1418",105,74,"pict","old","old",1,1.694367
"1419",105,75,"pict","new","new",1,1.399539
"1420",105,76,"pict","old","old",1,4.329386
"1421",105,77,"pict","old","old",1,1.694891
"1422",105,78,"pict","new","old",0,6.034386
"1423",105,79,"pict","new","new",1,1.816132
"1424",105,80,"pict","new","new",1,1.399534
"1425",105,81,"pict","new","new",1,1.417649
"1426",105,82,"pict","old","old",1,1.71718
"1427",105,83,"pict","new","new",1,1.819547
"1428",105,84,"pict","old","old",1,2.895617
"1429",105,85,"pict","new","new",1,3.995119
"1430",105,86,"pict","old","old",1,1.912794
"1431",105,87,"pict","old","old",1,4.604392
"1432",105,88,"pict","old","old",1,3.133628
"1433",105,89,"pict","new","new",1,2.586659
"1434",105,90,"pict","new","new",1,1.310965
"1435",105,91,"pict","old","old",1,1.585434
"1436",105,92,"pict","old","old",1,1.903199
"1437",105,93,"pict","old","old",1,1.605735
"1438",105,94,"pict","old","new",0,3.228751
"1439",105,95,"pict","old","old",1,1.918192
"1440",105,96,"pict","old","new",0,1.698649
"1441",105,97,"pict","old","old",1,2.533476
"1442",105,98,"pict","old","old",1,2.112157
"1443",105,99,"pict","new","new",1,2.037825
"1444",105,100,"pict","old","old",1,2.139878
"1445",105,101,"pict","new","new",1,8.977775
"1446",105,102,"pict","old","old",1,1.889226
"1447",105,103,"pict","old","old",1,1.829217
"1448",105,104,"pict","new","new",1,1.600013
"1449",105,105,"pict","old","new",0,1.387793
"1450",105,106,"pict","old","old",1,1.502789
"1451",105,107,"pict","old","old",1,1.576513
"1452",105,108,"pict","old","old",1,3.566343
"1453",105,109,"pict","new","new",1,1.606305
"1454",105,110,"pict","new","new",1,1.27088
"1455",105,111,"pict","old","old",1,1.84164
"1456",105,112,"pict","new","new",1,1.270692
"1457",105,113,"aud","old","old",1,3.989783
"1458",105,114,"aud","new","new",1,0.966106
"1459",105,115,"aud","old","old",1,0.767801
"1460",105,116,"aud","old","new",0,0.856857
"1461",105,117,"aud","old","new",0,0.870021
"1462",105,118,"aud","old","old",1,0.7601
"1463",105,119,"aud","old","old",1,0.737591
"1464",105,120,"aud","old","old",1,0.762513
"1465",105,121,"aud","new","new",1,1.075292
"1466",105,122,"aud","old","new",0,0.653909
"1467",105,123,"aud","old","new",0,0.762147
"1468",105,124,"aud","old","old",1,1.496457
"1469",105,125,"aud","new","new",1,0.754535
"1470",105,126,"aud","new","new",1,0.43541
"1471",105,127,"aud","old","old",1,1.605628
"1472",105,128,"aud","old","new",0,3.209938
"1473",105,129,"aud","new","old",0,2.68213
"1474",105,130,"aud","new","old",0,1.822039
"1475",105,131,"aud","new","new",1,0.545123
"1476",105,132,"aud","new","new",1,0.761447
"1477",105,133,"aud","old","new",0,0.984229
"1478",105,134,"aud","new","new",1,0.752722
"1479",105,135,"aud","old","old",1,0.742776
"1480",105,136,"aud","old","old",1,0.638944
"1481",105,137,"aud","old","new",0,0.433765
"1482",105,138,"aud","old","old",1,0.538693
"1483",105,139,"aud","old","old",1,0.435281
"1484",105,140,"aud","new","new",1,0.763162
"1485",105,141,"aud","old","new",0,0.745773
"1486",105,142,"aud","new","new",1,0.855151
"1487",105,143,"aud","old","old",1,0.430446
"1488",105,144,"aud","new","new",1,1.166907
"1489",105,145,"aud","new","new",1,0.638697
"1490",105,146,"aud","old","old",1,0.855646
"1491",105,147,"aud","old","old",1,0.433716
"1492",105,148,"aud","new","new",1,1.181397
"1493",105,149,"aud","old","new",0,4.028939
"1494",105,150,"aud","old","old",1,0.63662
"1495",105,151,"aud","old","new",0,1.057764
"1496",105,152,"aud","old","old",1,0.745939
"1497",105,153,"aud","new","new",1,3.522577
"1498",105,154,"aud","old","old",1,1.931424
"1499",105,155,"aud","new","new",1,0.43535
"1500",105,156,"aud","old","new",0,1.057671
"1501",105,157,"aud","new","new",1,1.525818
"1502",105,158,"aud","old","old",1,1.197772
"1503",105,159,"aud","old","old",1,0.433191
"1504",105,160,"aud","new","new",1,0.433631
"1505",105,161,"aud","old","old",1,0.433737
"1506",105,162,"aud","new","new",1,0.432437
"1507",105,163,"aud","old","new",0,1.494812
"1508",105,164,"aud","old","old",1,1.16252
"1509",105,165,"aud","new","old",0,1.641517
"1510",105,166,"aud","old","new",0,0.746298
"1511",105,167,"aud","new","new",1,0.433444
"1512",105,168,"aud","old","old",1,1.091041
"1513",105,169,"aud","new","new",1,1.160403
"1514",105,170,"aud","old","old",1,6.38624
"1515",105,171,"aud","new","new",1,1.057731
"1516",105,172,"aud","old","new",0,1.798463
"1517",105,173,"aud","new","new",1,0.433491
"1518",105,174,"aud","new","new",1,0.433474
"1519",105,175,"aud","new","new",1,0.543136
"1520",105,176,"aud","new","new",1,0.433583
"1521",105,177,"aud","new","old",0,0.7459
"1522",105,178,"aud","old","new",0,0.545102
"1523",105,179,"aud","new","new",1,0.54323
"1524",105,180,"aud","new","new",1,0.433632
"1525",105,181,"aud","new","new",1,0.979824
"1526",105,182,"aud","old","old",1,0.651179
"1527",105,183,"aud","new","new",1,0.544544
"1528",105,184,"aud","new","new",1,0.652547
"1529",105,185,"aud","old","old",1,0.653969
"1530",105,186,"aud","new","new",1,1.182759
"1531",105,187,"aud","new","new",1,3.054663
"1532",105,188,"aud","old","new",0,3.366711
"1533",105,189,"aud","new","new",1,1.838282
"1534",105,190,"aud","new","new",1,1.401037
"1535",105,191,"aud","new","new",1,0.433019
"1536",105,192,"aud","new","new",1,5.347827
"1537",105,193,"aud","new","old",0,6.049262
"1538",105,194,"aud","new","new",1,16.548403
"1539",105,195,"aud","new","new",1,0.433586
"1540",105,196,"aud","old","new",0,1.307639
"1541",105,197,"aud","new","new",1,0.543195
"1542",105,198,"aud","old","old",1,1.575665
"1543",105,199,"aud","new","new",1,1.307856
"1544",105,200,"aud","new","new",1,1.182335
"1545",105,201,"aud","old","old",1,0.652356
"1546",105,202,"aud","new","old",0,1.089281
"1547",105,203,"aud","new","new",1,1.053426
"1548",105,204,"aud","old","old",1,1.603986
"1549",105,205,"aud","new","old",0,0.870697
"1550",105,206,"aud","old","old",1,4.583356
"1551",105,207,"aud","old","old",1,0.542638
"1552",105,208,"aud","new","new",1,4.443117
"1553",105,209,"aud","new","new",1,10.013808
"1554",105,210,"aud","old","old",1,0.964216
"1555",105,211,"aud","old","old",1,0.850826
"1556",105,212,"aud","new","old",0,1.808813
"1557",105,213,"aud","new","new",1,0.433965
"1558",105,214,"aud","old","old",1,0.648093
"1559",105,215,"aud","old","old",1,0.433567
"1560",105,216,"aud","new","new",1,1.182178
"1561",105,217,"aud","old","new",0,4.692864
"1562",105,218,"aud","old","old",1,0.761661
"1563",105,219,"aud","new","new",1,0.747458
"1564",105,220,"aud","new","new",1,1.384448
"1565",105,221,"aud","old","old",1,0.642431
"1566",105,222,"aud","old","new",0,0.648113
"1567",105,223,"aud","new","new",1,0.658394
"1568",105,224,"aud","old","old",1,1.47901
"1569",106,1,"aud","new","new",1,1.485655
"1570",106,2,"aud","old","old",1,1.043676
"1571",106,3,"aud","old","old",1,0.761217
"1572",106,4,"aud","new","new",1,0.763107
"1573",106,5,"aud","old","old",1,0.763522
"1574",106,6,"aud","old","old",1,0.979862
"1575",106,7,"aud","old","old",1,0.979723
"1576",106,8,"aud","old","new",0,4.81804
"1577",106,9,"aud","new","new",1,1.200951
"1578",106,10,"aud","new","new",1,1.198133
"1579",106,11,"aud","new","new",1,0.978814
"1580",106,12,"aud","old","old",1,1.163026
"1581",106,13,"aud","old","old",1,0.761363
"1582",106,14,"aud","old","old",1,0.761401
"1583",106,15,"aud","old","old",1,0.433798
"1584",106,16,"aud","new","old",0,0.761359
"1585",106,17,"aud","new","new",1,0.730122
"1586",106,18,"aud","new","new",1,2.352355
"1587",106,19,"aud","new","new",1,1.681725
"1588",106,20,"aud","old","old",1,0.761411
"1589",106,21,"aud","new","new",1,0.761487
"1590",106,22,"aud","old","old",1,0.638469
"1591",106,23,"aud","old","old",1,0.752362
"1592",106,24,"aud","new","old",0,3.940111
"1593",106,25,"aud","old","old",1,1.853193
"1594",106,26,"aud","old","old",1,2.165253
"1595",106,27,"aud","old","old",1,0.761485
"1596",106,28,"aud","old","old",1,0.870571
"1597",106,29,"aud","old","old",1,0.761299
"1598",106,30,"aud","new","new",1,0.753829
"1599",106,31,"aud","new","new",1,1.366926
"1600",106,32,"aud","new","new",1,0.988089
"1601",106,33,"aud","new","new",1,0.950533
"1602",106,34,"aud","old","new",0,0.870497
"1603",106,35,"aud","new","old",0,3.92135
"1604",106,36,"aud","old","new",0,0.950119
"1605",106,37,"aud","new","old",0,2.554939
"1606",106,38,"aud","new","new",1,1.161176
"1607",106,39,"aud","old","old",1,1.170397
"1608",106,40,"aud","new","old",0,1.526836
"1609",106,41,"aud","new","old",0,1.582072
"1610",106,42,"aud","old","old",1,0.761295
"1611",106,43,"aud","new","old",0,3.122162
"1612",106,44,"aud","old","old",1,0.870521
"1613",106,45,"aud","old","old",1,0.877037
"1614",106,46,"aud","old","old",1,0.855027
"1615",106,47,"aud","old","old",1,0.762157
"1616",106,48,"aud","old","old",1,0.761238
"1617",106,49,"aud","old","old",1,0.76145
"1618",106,50,"aud","old","old",1,0.871937
"1619",106,51,"aud","old","old",1,0.854958
"1620",106,52,"aud","new","new",1,0.74684
"1621",106,53,"aud","old","new",0,0.86749
"1622",106,54,"aud","new","new",1,0.761275
"1623",106,55,"aud","new","new",1,0.964167
"1624",106,56,"aud","old","old",1,0.948623
"1625",106,57,"aud","new","new",1,1.24489
"1626",106,58,"aud","old","old",1,0.652678
"1627",106,59,"aud","new","new",1,0.763414
"1628",106,60,"aud","old","old",1,0.730249
"1629",106,61,"aud","new","new",1,0.763285
"1630",106,62,"aud","old","old",1,0.860563
"1631",106,63,"aud","old","old",1,0.840976
"1632",106,64,"aud","new","old",0,0.855092
"1633",106,65,"aud","old","old",1,0.761368
"1634",106,66,"aud","new","old",0,1.922745
"1635",106,67,"aud","new","new",1,0.84163
"1636",106,68,"aud","new","new",1,3.507792
"1637",106,69,"aud","old","old",1,0.961943
"1638",106,70,"aud","old","old",1,1.089028
"1639",106,71,"aud","new","new",1,1.142699
"1640",106,72,"aud","old","old",1,0.654489
"1641",106,73,"aud","new","new",1,0.948427
"1642",106,74,"aud","old","new",0,0.659487
"1643",106,75,"aud","new","old",0,0.823664
"1644",106,76,"aud","old","old",1,0.74564
"1645",106,77,"aud","new","new",1,0.962141
"1646",106,78,"aud","new","old",0,1.812437
"1647",106,79,"aud","new","new",1,0.760539
"1648",106,80,"aud","new","new",1,0.65319
"1649",106,81,"aud","old","old",1,0.849816
"1650",106,82,"aud","new","old",0,0.747612
"1651",106,83,"aud","old","old",1,0.858511
"1652",106,84,"aud","new","old",0,0.854946
"1653",106,85,"aud","new","old",0,0.769251
"1654",106,86,"aud","new","new",1,0.856956
"1655",106,87,"aud","old","old",1,0.957366
"1656",106,88,"aud","new","new",1,0.747827
"1657",106,89,"aud","new","new",1,0.747859
"1658",106,90,"aud","new","new",1,0.747923
"1659",106,91,"aud","new","new",1,0.753369
"1660",106,92,"aud","old","old",1,0.85402
"1661",106,93,"aud","new","new",1,0.964257
"1662",106,94,"aud","new","new",1,0.872405
"1663",106,95,"aud","new","new",1,0.948641
"1664",106,96,"aud","old","old",1,2.134246
"1665",106,97,"aud","new","new",1,0.758143
"1666",106,98,"aud","old","old",1,0.948163
"1667",106,99,"aud","new","new",1,0.872484
"1668",106,100,"aud","new","old",0,4.177728
"1669",106,101,"aud","old","old",1,0.746005
"1670",106,102,"aud","old","old",1,0.761453
"1671",106,103,"aud","new","new",1,0.762242
"1672",106,104,"aud","old","old",1,1.051097
"1673",106,105,"aud","old","new",0,0.65832
"1674",106,106,"aud","old","old",1,0.745883
"1675",106,107,"aud","new","new",1,0.761371
"1676",106,108,"aud","old","old",1,0.976591
"1677",106,109,"aud","old","old",1,0.656062
"1678",106,110,"aud","new","new",1,1.607274
"1679",106,111,"aud","old","old",1,0.763294
"1680",106,112,"aud","new","new",1,0.74628
"1681",106,113,"pict","new","new",1,2.619092
"1682",106,114,"pict","old","old",1,1.585727
"1683",106,115,"pict","old","old",1,1.58967
"1684",106,116,"pict","old","old",1,1.165556
"1685",106,117,"pict","new","new",1,3.17616
"1686",106,118,"pict","new","new",1,2.041148
"1687",106,119,"pict","old","old",1,3.033248
"1688",106,120,"pict","new","new",1,1.918552
"1689",106,121,"pict","new","new",1,1.727982
"1690",106,122,"pict","new","new",1,2.524644
"1691",106,123,"pict","new","new",1,4.408475
"1692",106,124,"pict","old","old",1,1.602206
"1693",106,125,"pict","old","old",1,1.789892
"1694",106,126,"pict","old","old",1,1.168286
"1695",106,127,"pict","old","old",1,1.19781
"1696",106,128,"pict","new","new",1,1.932675
"1697",106,129,"pict","new","new",1,1.181815
"1698",106,130,"pict","new","new",1,0.96743
"1699",106,131,"pict","new","new",1,1.304107
"1700",106,132,"pict","new","new",1,1.093869
"1701",106,133,"pict","old","new",0,1.09256
"1702",106,134,"pict","new","new",1,2.277717
"1703",106,135,"pict","old","old",1,1.603784
"1704",106,136,"pict","old","old",1,1.500254
"1705",106,137,"pict","old","old",1,1.199226
"1706",106,138,"pict","new","new",1,1.59707
"1707",106,139,"pict","new","new",1,1.301098
"1708",106,140,"pict","new","new",1,1.191041
"1709",106,141,"pict","new","new",1,1.28272
"1710",106,142,"pict","old","old",1,1.712301
"1711",106,143,"pict","new","new",1,2.019121
"1712",106,144,"pict","new","new",1,2.172982
"1713",106,145,"pict","old","old",1,2.144827
"1714",106,146,"pict","new","new",1,1.17429
"1715",106,147,"pict","old","old",1,2.471959
"1716",106,148,"pict","old","old",1,2.763052
"1717",106,149,"pict","new","new",1,1.609988
"1718",106,150,"pict","new","new",1,1.191106
"1719",106,151,"pict","new","new",1,1.187709
"1720",106,152,"pict","old","old",1,1.610847
"1721",106,153,"pict","new","new",1,1.347867
"1722",106,154,"pict","old","old",1,4.150636
"1723",106,155,"pict","new","new",1,1.388309
"1724",106,156,"pict","new","new",1,1.401683
"1725",106,157,"pict","old","old",1,1.508765
"1726",106,158,"pict","new","new",1,1.272159
"1727",106,159,"pict","old","old",1,2.449073
"1728",106,160,"pict","new","new",1,1.477943
"1729",106,161,"pict","old","old",1,2.157175
"1730",106,162,"pict","new","new",1,1.266499
"1731",106,163,"pict","new","new",1,1.092992
"1732",106,164,"pict","old","old",1,2.152502
"1733",106,165,"pict","old","old",1,1.464274
"1734",106,166,"pict","new","new",1,1.592997
"1735",106,167,"pict","new","new",1,1.09599
"1736",106,168,"pict","old","old",1,1.601073
"1737",106,169,"pict","old","old",1,2.306771
"1738",106,170,"pict","new","new",1,1.496001
"1739",106,171,"pict","new","new",1,1.195776
"1740",106,172,"pict","old","old",1,2.90734
"1741",106,173,"pict","new","new",1,1.293474
"1742",106,174,"pict","new","new",1,1.192962
"1743",106,175,"pict","old","old",1,1.814571
"1744",106,176,"pict","old","old",1,1.793732
"1745",106,177,"pict","new","new",1,1.263683
"1746",106,178,"pict","new","new",1,1.198557
"1747",106,179,"pict","new","new",1,1.418206
"1748",106,180,"pict","new","new",1,1.31302
"1749",106,181,"pict","old","new",0,2.182478
"1750",106,182,"pict","new","new",1,1.40996
"1751",106,183,"pict","old","old",1,1.828944
"1752",106,184,"pict","old","old",1,1.667972
"1753",106,185,"pict","old","old",1,1.982114
"1754",106,186,"pict","new","new",1,1.135368
"1755",106,187,"pict","old","old",1,2.028494
"1756",106,188,"pict","old","old",1,1.815843
"1757",106,189,"pict","old","new",0,1.592261
"1758",106,190,"pict","new","new",1,1.621368
"1759",106,191,"pict","old","old",1,2.912797
"1760",106,192,"pict","old","old",1,2.755978
"1761",106,193,"pict","old","new",0,1.408639
"1762",106,194,"pict","new","new",1,1.092119
"1763",106,195,"pict","old","new",0,0.871998
"1764",106,196,"pict","new","new",1,2.826935
"1765",106,197,"pict","old","new",0,1.520563
"1766",106,198,"pict","new","new",1,1.078594
"1767",106,199,"pict","old","old",1,1.512936
"1768",106,200,"pict","old","new",0,1.07796
"1769",106,201,"pict","old","new",0,0.976259
"1770",106,202,"pict","old","old",1,2.05775
"1771",106,203,"pict","old","old",1,1.577755
"1772",106,204,"pict","old","old",1,1.286289
"1773",106,205,"pict","old","old",1,1.399482
"1774",106,206,"pict","new","new",1,2.809555
"1775",106,207,"pict","new","new",1,4.673058
"1776",106,208,"pict","old","old",1,1.804411
"1777",106,209,"pict","new","new",1,1.519841
"1778",106,210,"pict","old","old",1,1.616125
"1779",106,211,"pict","old","new",0,1.397068
"1780",106,212,"pict","old","new",0,1.088321
"1781",106,213,"pict","new","new",1,1.411355
"1782",106,214,"pict","new","new",1,1.085294
"1783",106,215,"pict","old","old",1,2.130223
"1784",106,216,"pict","old","new",0,1.08259
"1785",106,217,"pict","new","new",1,1.311161
"1786",106,218,"pict","new","new",1,1.192227
"1787",106,219,"pict","old","new",0,1.199263
"1788",106,220,"pict","new","new",1,2.596772
"1789",106,221,"pict","new","new",1,1.308257
"1790",106,222,"pict","old","old",1,1.810896
"1791",106,223,"pict","new","new",1,1.094555
"1792",106,224,"pict","old","old",1,1.778916
"1793",107,1,"pict","old","old",1,1.691253
"1794",107,2,"pict","new","new",1,1.384465
"1795",107,3,"pict","new","new",1,1.373787
"1796",107,4,"pict","new","new",1,1.471955
"1797",107,5,"pict","new","new",1,1.250609
"1798",107,6,"pict","new","old",0,3.99749
"1799",107,7,"pict","old","old",1,1.392845
"1800",107,8,"pict","old","old",1,1.392856
"1801",107,9,"pict","new","new",1,1.812347
"1802",107,10,"pict","new","new",1,1.570971
"1803",107,11,"pict","old","old",1,1.488673
"1804",107,12,"pict","old","old",1,1.364885
"1805",107,13,"pict","new","new",1,1.609519
"1806",107,14,"pict","old","old",1,1.398
"1807",107,15,"pict","new","new",1,1.488799
"1808",107,16,"pict","new","new",1,3.303775
"1809",107,17,"pict","old","old",1,1.389929
"1810",107,18,"pict","new","new",1,2.138753
"1811",107,19,"pict","old","old",1,1.459763
"1812",107,20,"pict","old","old",1,1.474912
"1813",107,21,"pict","new","new",1,1.379684
"1814",107,22,"pict","old","old",1,1.66906
"1815",107,23,"pict","old","old",1,1.475579
"1816",107,24,"pict","old","old",1,1.390173
"1817",107,25,"pict","old","old",1,1.518794
"1818",107,26,"pict","old","old",1,1.386037
"1819",107,27,"pict","new","new",1,1.262311
"1820",107,28,"pict","new","new",1,1.606213
"1821",107,29,"pict","old","old",1,1.465797
"1822",107,30,"pict","old","old",1,1.592056
"1823",107,31,"pict","old","old",1,1.382344
"1824",107,32,"pict","old","old",1,1.294775
"1825",107,33,"pict","old","old",1,1.401994
"1826",107,34,"pict","new","new",1,1.702196
"1827",107,35,"pict","old","old",1,1.561445
"1828",107,36,"pict","old","old",1,1.089956
"1829",107,37,"pict","new","new",1,2.133195
"1830",107,38,"pict","old","old",1,1.789058
"1831",107,39,"pict","new","new",1,2.049218
"1832",107,40,"pict","new","new",1,2.369913
"1833",107,41,"pict","old","old",1,1.485502
"1834",107,42,"pict","new","new",1,1.912719
"1835",107,43,"pict","new","new",1,1.806672
"1836",107,44,"pict","old","old",1,2.131395
"1837",107,45,"pict","new","new",1,1.807473
"1838",107,46,"pict","old","old",1,1.7139
"1839",107,47,"pict","new","new",1,2.025525
"1840",107,48,"pict","old","old",1,1.288804
"1841",107,49,"pict","old","old",1,0.978645
"1842",107,50,"pict","old","old",1,1.660307
"1843",107,51,"pict","new","old",0,2.27437
"1844",107,52,"pict","old","new",0,1.482202
"1845",107,53,"pict","old","new",0,1.523359
"1846",107,54,"pict","old","new",0,1.39945
"1847",107,55,"pict","new","new",1,1.379152
"1848",107,56,"pict","new","new",1,3.08387
"1849",107,57,"pict","old","old",1,1.88362
"1850",107,58,"pict","old","old",1,1.727664
"1851",107,59,"pict","old","old",1,1.634333
"1852",107,60,"pict","old","old",1,1.303331
"1853",107,61,"pict","old","old",1,1.399092
"1854",107,62,"pict","old","old",1,2.444305
"1855",107,63,"pict","new","new",1,1.476928
"1856",107,64,"pict","new","new",1,1.599171
"1857",107,65,"pict","new","new",1,2.058268
"1858",107,66,"pict","new","old",0,4.701752
"1859",107,67,"pict","new","new",1,1.580542
"1860",107,68,"pict","new","old",0,2.21382
"1861",107,69,"pict","old","old",1,1.768064
"1862",107,70,"pict","old","old",1,3.044642
"1863",107,71,"pict","old","new",0,1.588903
"1864",107,72,"pict","new","new",1,1.897238
"1865",107,73,"pict","new","new",1,1.991958
"1866",107,74,"pict","old","old",1,1.661446
"1867",107,75,"pict","old","old",1,1.791145
"1868",107,76,"pict","old","old",1,1.639917
"1869",107,77,"pict","new","new",1,1.703769
"1870",107,78,"pict","new","new",1,1.803362
"1871",107,79,"pict","old","old",1,1.896554
"1872",107,80,"pict","new","new",1,1.622157
"1873",107,81,"pict","new","new",1,2.098127
"1874",107,82,"pict","old","old",1,1.602165
"1875",107,83,"pict","old","old",1,1.690532
"1876",107,84,"pict","new","new",1,4.667402
"1877",107,85,"pict","new","new",1,2.078277
"1878",107,86,"pict","old","old",1,1.910607
"1879",107,87,"pict","new","new",1,1.916344
"1880",107,88,"pict","new","old",0,2.862755
"1881",107,89,"pict","old","old",1,1.301642
"1882",107,90,"pict","new","new",1,2.159473
"1883",107,91,"pict","new","new",1,1.590716
"1884",107,92,"pict","old","old",1,1.893769
"1885",107,93,"pict","new","new",1,2.348896
"1886",107,94,"pict","new","new",1,1.69151
"1887",107,95,"pict","old","old",1,1.458387
"1888",107,96,"pict","old","old",1,4.4989
"1889",107,97,"pict","old","new",0,1.802573
"1890",107,98,"pict","new","old",0,1.690428
"1891",107,99,"pict","new","new",1,1.602308
"1892",107,100,"pict","new","new",1,1.200392
"1893",107,101,"pict","new","new",1,1.517635
"1894",107,102,"pict","old","old",1,2.035173
"1895",107,103,"pict","new","new",1,2.056762
"1896",107,104,"pict","new","old",0,3.3742
"1897",107,105,"pict","new","new",1,3.565023
"1898",107,106,"pict","new","new",1,2.048041
"1899",107,107,"pict","new","old",0,2.47295
"1900",107,108,"pict","old","new",0,2.906714
"1901",107,109,"pict","old","old",1,1.625215
"1902",107,110,"pict","old","old",1,1.503106
"1903",107,111,"pict","new","new",1,2.007009
"1904",107,112,"pict","new","old",0,5.270753
"1905",107,113,"aud","old","new",0,3.895198
"1906",107,114,"aud","new","old",0,3.007849
"1907",107,115,"aud","new","new",1,1.073322
"1908",107,116,"aud","new","new",1,0.964111
"1909",107,117,"aud","new","new",1,0.854812
"1910",107,118,"aud","old","new",0,0.761871
"1911",107,119,"aud","new","old",0,1.291713
"1912",107,120,"aud","new","new",1,0.867864
"1913",107,121,"aud","new","old",0,1.713051
"1914",107,122,"aud","old","new",0,0.856551
"1915",107,123,"aud","old","old",1,0.942886
"1916",107,124,"aud","new","new",1,0.856982
"1917",107,125,"aud","old","old",1,1.054223
"1918",107,126,"aud","new","new",1,0.761992
"1919",107,127,"aud","new","new",1,1.07325
"1920",107,128,"aud","new","new",1,0.753743
"1921",107,129,"aud","new","new",1,0.854965
"1922",107,130,"aud","new","new",1,0.76155
"1923",107,131,"aud","new","new",1,0.761389
"1924",107,132,"aud","new","new",1,0.659385
"1925",107,133,"aud","new","old",0,0.85534
"1926",107,134,"aud","old","old",1,0.755748
"1927",107,135,"aud","old","old",1,0.76134
"1928",107,136,"aud","old","new",0,0.948553
"1929",107,137,"aud","new","new",1,0.870462
"1930",107,138,"aud","new","new",1,0.753917
"1931",107,139,"aud","old","old",1,3.194929
"1932",107,140,"aud","new","new",1,0.854859
"1933",107,141,"aud","new","new",1,0.761161
"1934",107,142,"aud","old","old",1,0.856165
"1935",107,143,"aud","new","new",1,0.871416
"1936",107,144,"aud","new","new",1,0.745382
"1937",107,145,"aud","old","new",0,0.761517
"1938",107,146,"aud","new","new",1,0.752043
"1939",107,147,"aud","new","new",1,0.848728
"1940",107,148,"aud","old","old",1,0.741133
"1941",107,149,"aud","old","old",1,0.765638
"1942",107,150,"aud","old","old",1,0.761964
"1943",107,151,"aud","old","old",1,0.761429
"1944",107,152,"aud","new","new",1,1.191745
"1945",107,153,"aud","new","new",1,0.855109
"1946",107,154,"aud","new","new",1,0.761415
"1947",107,155,"aud","new","new",1,0.761434
"1948",107,156,"aud","new","new",1,0.542776
"1949",107,157,"aud","new","new",1,0.753037
"1950",107,158,"aud","old","old",1,1.168457
"1951",107,159,"aud","new","new",1,0.757225
"1952",107,160,"aud","old","old",1,0.758686
"1953",107,161,"aud","old","old",1,0.763372
"1954",107,162,"aud","new","new",1,0.857253
"1955",107,163,"aud","old","new",0,2.025987
"1956",107,164,"aud","old","old",1,1.182569
"1957",107,165,"aud","new","new",1,0.874898
"1958",107,166,"aud","new","new",1,0.869187
"1959",107,167,"aud","old","old",1,0.855296
"1960",107,168,"aud","new","new",1,0.871844
"1961",107,169,"aud","old","old",1,0.762523
"1962",107,170,"aud","new","new",1,0.872462
"1963",107,171,"aud","old","new",0,0.870574
"1964",107,172,"aud","new","new",1,0.652265
"1965",107,173,"aud","old","old",1,0.763305
"1966",107,174,"aud","old","old",1,0.964156
"1967",107,175,"aud","old","old",1,0.762563
"1968",107,176,"aud","new","new",1,0.841427
"1969",107,177,"aud","old","old",1,0.762077
"1970",107,178,"aud","old","old",1,0.751664
"1971",107,179,"aud","new","new",1,0.763604
"1972",107,180,"aud","new","new",1,1.385284
"1973",107,181,"aud","old","old",1,0.763428
"1974",107,182,"aud","old","new",0,0.851668
"1975",107,183,"aud","new","old",0,1.572666
"1976",107,184,"aud","old","new",0,0.748011
"1977",107,185,"aud","new","new",1,0.761547
"1978",107,186,"aud","old","old",1,0.74749
"1979",107,187,"aud","old","old",1,0.958434
"1980",107,188,"aud","old","new",0,0.652537
"1981",107,189,"aud","old","old",1,0.754224
"1982",107,190,"aud","old","old",1,0.948733
"1983",107,191,"aud","old","old",1,0.945331
"1984",107,192,"aud","old","new",0,0.963685
"1985",107,193,"aud","old","old",1,0.859684
"1986",107,194,"aud","old","old",1,5.02506
"1987",107,195,"aud","new","new",1,0.747816
"1988",107,196,"aud","new","new",1,0.875662
"1989",107,197,"aud","new","new",1,0.768394
"1990",107,198,"aud","old","old",1,0.761749
"1991",107,199,"aud","old","new",0,0.950557
"1992",107,200,"aud","old","new",0,0.759241
"1993",107,201,"aud","old","old",1,0.849483
"1994",107,202,"aud","new","new",1,0.846592
"1995",107,203,"aud","new","old",0,0.855461
"1996",107,204,"aud","old","old",1,2.103155
"1997",107,205,"aud","old","new",0,0.966237
"1998",107,206,"aud","new","new",1,0.742084
"1999",107,207,"aud","old","new",0,2.886348
"2000",107,208,"aud","old","old",1,0.971233
"2001",107,209,"aud","new","new",1,0.769693
"2002",107,210,"aud","old","old",1,0.960182
"2003",107,211,"aud","new","new",1,1.584206
"2004",107,212,"aud","new","new",1,0.761056
"2005",107,213,"aud","old","new",0,2.332154
"2006",107,214,"aud","old","old",1,0.948736
"2007",107,215,"aud","old","new",0,0.76086
"2008",107,216,"aud","old","old",1,0.973695
"2009",107,217,"aud","new","new",1,1.605697
"2010",107,218,"aud","old","old",1,0.76652
"2011",107,219,"aud","new","new",1,0.761542
"2012",107,220,"aud","new","new",1,1.503951
"2013",107,221,"aud","new","new",1,0.653516
"2014",107,222,"aud","new","old",0,0.869444
"2015",107,223,"aud","old","old",1,0.761461
"2016",107,224,"aud","old","old",1,0.761532
"2017",108,1,"aud","old","old",1,1.771328
"2018",108,2,"aud","old","old",1,0.869233
"2019",108,3,"aud","new","new",1,0.752906
"2020",108,4,"aud","old","old",1,0.652246
"2021",108,5,"aud","old","old",1,0.652218
"2022",108,6,"aud","new","new",1,0.643808
"2023",108,7,"aud","old","old",1,0.652205
"2024",108,8,"aud","new","new",1,0.87234
"2025",108,9,"aud","new","old",0,0.948505
"2026",108,10,"aud","new","old",0,0.761301
"2027",108,11,"aud","old","old",1,0.652193
"2028",108,12,"aud","new","new",1,1.270423
"2029",108,13,"aud","old","old",1,1.284403
"2030",108,14,"aud","new","new",1,0.745747
"2031",108,15,"aud","new","new",1,0.629691
"2032",108,16,"aud","new","old",0,1.182102
"2033",108,17,"aud","old","old",1,0.652177
"2034",108,18,"aud","new","new",1,0.951654
"2035",108,19,"aud","new","new",1,0.652196
"2036",108,20,"aud","new","old",0,0.98156
"2037",108,21,"aud","new","old",0,0.965093
"2038",108,22,"aud","old","old",1,2.040689
"2039",108,23,"aud","old","old",1,0.652243
"2040",108,24,"aud","new","new",1,1.697279
"2041",108,25,"aud","new","new",1,0.861649
"2042",108,26,"aud","old","old",1,0.932322
"2043",108,27,"aud","new","new",1,1.147573
"2044",108,28,"aud","new","old",0,1.049345
"2045",108,29,"aud","new","new",1,0.950359
"2046",108,30,"aud","old","old",1,1.166279
"2047",108,31,"aud","new","old",0,0.870534
"2048",108,32,"aud","new","old",0,0.652146
"2049",108,33,"aud","old","old",1,0.964058
"2050",108,34,"aud","new","old",0,0.636424
"2051",108,35,"aud","new","new",1,0.747727
"2052",108,36,"aud","old","old",1,0.95383
"2053",108,37,"aud","old","old",1,1.2363
"2054",108,38,"aud","new","old",0,0.652193
"2055",108,39,"aud","old","old",1,0.636713
"2056",108,40,"aud","old","new",0,0.637741
"2057",108,41,"aud","new","new",1,0.855259
"2058",108,42,"aud","old","new",0,1.494532
"2059",108,43,"aud","new","old",0,1.075258
"2060",108,44,"aud","new","new",1,0.965491
"2061",108,45,"aud","old","old",1,3.310905
"2062",108,46,"aud","new","new",1,0.849708
"2063",108,47,"aud","new","new",1,0.534433
"2064",108,48,"aud","new","new",1,0.543146
"2065",108,49,"aud","old","new",0,0.543023
"2066",108,50,"aud","new","old",0,1.588305
"2067",108,51,"aud","old","old",1,2.352746
"2068",108,52,"aud","new","new",1,1.153428
"2069",108,53,"aud","old","new",0,0.979785
"2070",108,54,"aud","new","new",1,0.761373
"2071",108,55,"aud","old","old",1,1.378666
"2072",108,56,"aud","old","old",1,19.108417
"2073",108,57,"aud","old","old",1,0.745367
"2074",108,58,"aud","new","new",1,2.321377
"2075",108,59,"aud","old","new",0,0.324347
"2076",108,60,"aud","old","new",0,6.861856
"2077",108,61,"aud","old","old",1,2.259082
"2078",108,62,"aud","new","old",0,8.608058
"2079",108,63,"aud","old","old",1,1.089015
"2080",108,64,"aud","new","old",0,2.727114
"2081",108,65,"aud","new","old",0,0.435571
"2082",108,66,"aud","old","new",0,0.764889
"2083",108,67,"aud","new","new",1,0.652309
"2084",108,68,"aud","old","old",1,0.855736
"2085",108,69,"aud","old","new",0,1.167043
"2086",108,70,"aud","old","old",1,0.731821
"2087",108,71,"aud","new","new",1,0.864601
"2088",108,72,"aud","old","new",0,0.76145
"2089",108,73,"aud","old","old",1,1.792944
"2090",108,74,"aud","old","new",0,1.260447
"2091",108,75,"aud","new","new",1,2.165388
"2092",108,76,"aud","old","new",0,0.433587
"2093",108,77,"aud","old","old",1,0.958784
"2094",108,78,"aud","new","old",0,0.652124
"2095",108,79,"aud","old","old",1,0.652115
"2096",108,80,"aud","new","old",0,0.652296
"2097",108,81,"aud","old","new",0,1.291798
"2098",108,82,"aud","old","new",0,1.052976
"2099",108,83,"aud","new","new",1,1.292115
"2100",108,84,"aud","new","old",0,0.848398
"2101",108,85,"aud","old","new",0,1.46337
"2102",108,86,"aud","old","old",1,0.950495
"2103",108,87,"aud","new","new",1,1.356225
"2104",108,88,"aud","old","new",0,1.494835
"2105",108,89,"aud","new","new",1,0.855234
"2106",108,90,"aud","new","new",1,0.433828
"2107",108,91,"aud","new","new",1,0.433845
"2108",108,92,"aud","old","new",0,0.324954
"2109",108,93,"aud","old","old",1,0.856935
"2110",108,94,"aud","old","old",1,0.324395
"2111",108,95,"aud","old","old",1,0.324397
"2112",108,96,"aud","new","old",0,0.5341
"2113",108,97,"aud","old","new",0,0.637828
"2114",108,98,"aud","old","old",1,0.85504
"2115",108,99,"aud","new","new",1,0.651664
"2116",108,100,"aud","old","new",0,1.05876
"2117",108,101,"aud","new","new",1,0.869842
"2118",108,102,"aud","new","new",1,0.324394
"2119",108,103,"aud","new","old",0,1.370014
"2120",108,104,"aud","old","new",0,2.337169
"2121",108,105,"aud","old","old",1,2.134296
"2122",108,106,"aud","old","old",1,0.746031
"2123",108,107,"aud","old","new",0,0.652342
"2124",108,108,"aud","new","new",1,1.619596
"2125",108,109,"aud","old","old",1,1.900361
"2126",108,110,"aud","new","old",0,0.761457
"2127",108,111,"aud","new","old",0,0.543165
"2128",108,112,"aud","new","new",1,0.435158
"2129",108,113,"pict","old","new",0,0.652882
"2130",108,114,"pict","old","old",1,3.960118
"2131",108,115,"pict","old","old",1,0.966587
"2132",108,116,"pict","old","new",0,0.832152
"2133",108,117,"pict","old","old",1,1.153456
"2134",108,118,"pict","old","new",0,1.060803
"2135",108,119,"pict","old","old",1,1.386649
"2136",108,120,"pict","old","old",1,0.860808
"2137",108,121,"pict","new","new",1,1.295697
"2138",108,122,"pict","new","new",1,1.495184
"2139",108,123,"pict","old","old",1,1.368837
"2140",108,124,"pict","new","new",1,1.703641
"2141",108,125,"pict","new","new",1,1.36903
"2142",108,126,"pict","new","new",1,0.943541
"2143",108,127,"pict","new","new",1,0.968013
"2144",108,128,"pict","old","old",1,1.992179
"2145",108,129,"pict","new","new",1,1.488355
"2146",108,130,"pict","new","new",1,1.150155
"2147",108,131,"pict","old","old",1,1.386106
"2148",108,132,"pict","new","new",1,1.368413
"2149",108,133,"pict","new","new",1,1.278305
"2150",108,134,"pict","new","new",1,0.971835
"2151",108,135,"pict","old","new",0,0.867696
"2152",108,136,"pict","new","new",1,1.446358
"2153",108,137,"pict","new","new",1,1.166016
"2154",108,138,"pict","new","new",1,1.351626
"2155",108,139,"pict","old","old",1,1.605928
"2156",108,140,"pict","old","old",1,0.876
"2157",108,141,"pict","new","new",1,1.28299
"2158",108,142,"pict","new","new",1,0.963486
"2159",108,143,"pict","new","new",1,1.067574
"2160",108,144,"pict","old","old",1,1.175075
"2161",108,145,"pict","old","old",1,1.083096
"2162",108,146,"pict","old","old",1,0.962299
"2163",108,147,"pict","old","old",1,0.975822
"2164",108,148,"pict","old","old",1,0.972643
"2165",108,149,"pict","new","old",0,1.523001
"2166",108,150,"pict","old","old",1,1.305506
"2167",108,151,"pict","new","old",0,1.523856
"2168",108,152,"pict","new","old",0,0.984687
"2169",108,153,"pict","old","new",0,1.382699
"2170",108,154,"pict","new","new",1,1.376791
"2171",108,155,"pict","new","new",1,1.173101
"2172",108,156,"pict","new","new",1,1.751
"2173",108,157,"pict","new","new",1,0.98664
"2174",108,158,"pict","old","old",1,1.477538
"2175",108,159,"pict","new","old",0,1.298127
"2176",108,160,"pict","old","new",0,1.253609
"2177",108,161,"pict","old","new",0,1.240184
"2178",108,162,"pict","new","new",1,1.378992
"2179",108,163,"pict","new","new",1,1.719935
"2180",108,164,"pict","new","old",0,1.153257
"2181",108,165,"pict","old","new",0,1.939126
"2182",108,166,"pict","old","old",1,1.445139
"2183",108,167,"pict","new","old",0,1.088742
"2184",108,168,"pict","new","new",1,2.044113
"2185",108,169,"pict","old","old",1,1.801169
"2186",108,170,"pict","old","old",1,1.288223
"2187",108,171,"pict","new","new",1,1.285208
"2188",108,172,"pict","new","new",1,1.155394
"2189",108,173,"pict","new","new",1,2.498277
"2190",108,174,"pict","new","old",0,2.074051
"2191",108,175,"pict","old","old",1,0.987982
"2192",108,176,"pict","new","old",0,1.097876
"2193",108,177,"pict","old","old",1,0.867378
"2194",108,178,"pict","old","old",1,0.747858
"2195",108,179,"pict","new","old",0,0.107623
"2196",108,180,"pict","new","old",0,0.100948
"2197",108,181,"pict","old","old",1,0.110191
"2198",108,182,"pict","old","old",1,0.106069
"2199",108,183,"pict","new","new",1,0.422807
"2200",108,184,"pict","new","new",1,0.321293
"2201",108,185,"pict","old","old",1,0.527845
"2202",108,186,"pict","old","new",0,0.433259
"2203",108,187,"pict","old","old",1,0.636045
"2204",108,188,"pict","old","new",0,0.330954
"2205",108,189,"pict","new","old",0,0.549671
"2206",108,190,"pict","old","new",0,0.86109
"2207",108,191,"pict","old","old",1,1.148911
"2208",108,192,"pict","old","old",1,1.069802
"2209",108,193,"pict","old","old",1,1.082207
"2210",108,194,"pict","old","old",1,0.981276
"2211",108,195,"pict","old","old",1,0.972894
"2212",108,196,"pict","old","new",0,0.737768
"2213",108,197,"pict","old","old",1,0.737037
"2214",108,198,"pict","new","new",1,1.24873
"2215",108,199,"pict","new","new",1,5.787236
"2216",108,200,"pict","new","new",1,0.649133
"2217",108,201,"pict","old","new",0,0.108273
"2218",108,202,"pict","new","new",1,0.114666
"2219",108,203,"pict","old","new",0,0.113872
"2220",108,204,"pict","old","new",0,0.100635
"2221",108,205,"pict","new","new",1,0.111477
"2222",108,206,"pict","old","new",0,0.107818
"2223",108,207,"pict","new","new",1,0.11215
"2224",108,208,"pict","new","new",1,0.111108
"2225",108,209,"pict","new","new",1,0.104045
"2226",108,210,"pict","new","new",1,0.114652
"2227",108,211,"pict","old","old",1,0.433159
"2228",108,212,"pict","old","old",1,0.429181
"2229",108,213,"pict","old","new",0,1.693137
"2230",108,214,"pict","new","new",1,1.68135
"2231",108,215,"pict","new","new",1,1.370215
"2232",108,216,"pict","old","new",0,1.70726
"2233",108,217,"pict","old","old",1,1.347651
"2234",108,218,"pict","new","old",0,0.966537
"2235",108,219,"pict","new","old",0,1.839506
"2236",108,220,"pict","new","new",1,1.512892
"2237",108,221,"pict","old","old",1,1.28203
"2238",108,222,"pict","new","new",1,1.405625
"2239",108,223,"pict","old","new",0,0.868349
"2240",108,224,"pict","new","old",0,0.969661
"2241",109,1,"pict","old","old",1,3.888103
"2242",109,2,"pict","new","new",1,1.77699
"2243",109,3,"pict","old","old",1,1.484166
"2244",109,4,"pict","new","old",0,2.119222
"2245",109,5,"pict","old","old",1,2.011595
"2246",109,6,"pict","old","old",1,3.640359
"2247",109,7,"pict","new","old",0,1.417117
"2248",109,8,"pict","old","old",1,0.980176
"2249",109,9,"pict","old","old",1,1.843426
"2250",109,10,"pict","old","old",1,0.988124
"2251",109,11,"pict","old","old",1,0.981677
"2252",109,12,"pict","old","old",1,0.858145
"2253",109,13,"pict","new","old",0,0.761041
"2254",109,14,"pict","new","old",0,1.308125
"2255",109,15,"pict","old","old",1,0.866867
"2256",109,16,"pict","new","old",0,0.977216
"2257",109,17,"pict","old","old",1,1.814886
"2258",109,18,"pict","new","new",1,1.198423
"2259",109,19,"pict","new","new",1,1.360756
"2260",109,20,"pict","new","old",0,1.054229
"2261",109,21,"pict","old","old",1,1.460728
"2262",109,22,"pict","new","old",0,1.984246
"2263",109,23,"pict","old","old",1,2.259154
"2264",109,24,"pict","old","old",1,1.287831
"2265",109,25,"pict","new","new",1,1.48916
"2266",109,26,"pict","old","old",1,0.95895
"2267",109,27,"pict","new","old",0,1.067029
"2268",109,28,"pict","new","new",1,1.258552
"2269",109,29,"pict","old","old",1,0.936491
"2270",109,30,"pict","old","old",1,1.368374
"2271",109,31,"pict","new","new",1,1.164018
"2272",109,32,"pict","new","new",1,1.487311
"2273",109,33,"pict","new","new",1,2.101885
"2274",109,34,"pict","new","new",1,1.365839
"2275",109,35,"pict","old","old",1,1.77685
"2276",109,36,"pict","old","old",1,1.151798
"2277",109,37,"pict","old","old",1,1.483122
"2278",109,38,"pict","new","old",0,2.353216
"2279",109,39,"pict","old","old",1,1.078276
"2280",109,40,"pict","old","old",1,0.872911
"2281",109,41,"pict","new","old",0,0.864587
"2282",109,42,"pict","new","new",1,1.343479
"2283",109,43,"pict","new","new",1,1.458529
"2284",109,44,"pict","new","new",1,1.480886
"2285",109,45,"pict","old","old",1,1.499319
"2286",109,46,"pict","new","new",1,1.716917
"2287",109,47,"pict","new","new",1,1.162208
"2288",109,48,"pict","new","new",1,1.381702
"2289",109,49,"pict","old","new",0,1.255367
"2290",109,50,"pict","old","new",0,1.422848
"2291",109,51,"pict","new","new",1,2.542503
"2292",109,52,"pict","new","new",1,1.16835
"2293",109,53,"pict","new","new",1,1.786243
"2294",109,54,"pict","old","new",0,1.780811
"2295",109,55,"pict","old","old",1,1.713057
"2296",109,56,"pict","old","old",1,1.152803
"2297",109,57,"pict","old","old",1,1.309031
"2298",109,58,"pict","new","new",1,1.378578
"2299",109,59,"pict","old","old",1,1.371689
"2300",109,60,"pict","old","old",1,1.273201
"2301",109,61,"pict","new","new",1,1.173263
"2302",109,62,"pict","old","old",1,2.544783
"2303",109,63,"pict","old","old",1,1.069952
"2304",109,64,"pict","new","new",1,1.162083
"2305",109,65,"pict","old","new",0,1.458545
"2306",109,66,"pict","new","old",0,1.49623
"2307",109,67,"pict","new","new",1,1.055335
"2308",109,68,"pict","new","new",1,1.909243
"2309",109,69,"pict","old","old",1,1.081213
"2310",109,70,"pict","old","old",1,1.587348
"2311",109,71,"pict","new","new",1,1.29053
"2312",109,72,"pict","new","new",1,1.385301
"2313",109,73,"pict","old","new",0,1.057664
"2314",109,74,"pict","old","old",1,1.351283
"2315",109,75,"pict","old","old",1,1.055156
"2316",109,76,"pict","new","new",1,1.036643
"2317",109,77,"pict","old","old",1,1.485265
