"","sub","trial","stim","item","response","correct","RT"
"1",1,1,"word","old","new",0,2.651497
"2",1,2,"word","old","old",1,1.397002
"3",1,3,"word","old","old",1,1.37698
"4",1,4,"word","old","old",1,1.777742
"5",1,5,"word","old","old",1,1.106758
"6",1,6,"word","old","old",1,1.496114
"7",1,7,"word","new","new",1,1.609932
"8",1,8,"word","new","new",1,0.956915
"9",1,9,"word","new","new",1,0.86723
"10",1,10,"word","new","old",0,1.292571
"11",1,11,"word","old","old",1,1.086253
"12",1,12,"word","new","new",1,1.59114
"13",1,13,"word","old","old",1,1.490851
"14",1,14,"word","old","old",1,0.989886
"15",1,15,"word","old","old",1,0.875439
"16",1,16,"word","new","new",1,1.946083
"17",1,17,"word","new","new",1,1.045177
"18",1,18,"word","new","new",1,0.977191
"19",1,19,"word","old","old",1,1.375187
"20",1,20,"word","new","new",1,2.269414
"21",1,21,"word","old","new",0,1.573574
"22",1,22,"word","new","old",0,1.160797
"23",1,23,"word","old","old",1,0.962939
"24",1,24,"word","new","old",0,1.092968
"25",1,25,"word","old","old",1,0.979521
"26",1,26,"word","old","old",1,0.860875
"27",1,27,"word","old","new",0,1.281399
"28",1,28,"word","old","new",0,1.472446
"29",1,29,"word","new","new",1,2.248463
"30",1,30,"word","new","new",1,1.273446
"31",1,31,"word","new","old",0,1.978523
"32",1,32,"word","old","old",1,0.986369
"33",1,33,"word","new","new",1,1.500206
"34",1,34,"word","new","new",1,0.989587
"35",1,35,"word","old","old",1,1.488288
"36",1,36,"word","new","new",1,1.493645
"37",1,37,"word","old","old",1,1.367797
"38",1,38,"word","old","old",1,0.878391
"39",1,39,"word","old","new",0,1.478497
"40",1,40,"word","new","new",1,1.592087
"41",1,41,"word","old","new",0,2.325771
"42",1,42,"word","old","old",1,1.067884
"43",1,43,"word","old","old",1,1.10518
"44",1,44,"word","old","old",1,1.097728
"45",1,45,"word","new","new",1,2.069158
"46",1,46,"word","new","new",1,1.163397
"47",1,47,"word","new","old",0,2.153973
"48",1,48,"word","old","old",1,1.079443
"49",1,49,"word","new","new",1,1.602923
"50",1,50,"word","new","new",1,1.18917
"51",1,51,"word","old","old",1,1.612253
"52",1,52,"word","new","old",0,1.101308
"53",1,53,"word","new","old",0,2.125488
"54",1,54,"word","new","new",1,1.931305
"55",1,55,"word","new","new",1,1.580843
"56",1,56,"word","new","new",1,1.067324
"57",1,57,"word","new","new",1,0.991903
"58",1,58,"word","old","old",1,1.399122
"59",1,59,"word","old","old",1,0.882656
"60",1,60,"word","new","new",1,1.616242
"61",1,61,"word","old","old",1,1.458291
"62",1,62,"word","old","old",1,0.999942
"63",1,63,"word","old","old",1,0.989386
"64",1,64,"word","new","new",1,1.723901
"65",1,65,"word","old","old",1,1.267978
"66",1,66,"word","old","old",1,0.8796
"67",1,67,"word","new","new",1,1.171904
"68",1,68,"word","new","old",0,1.262733
"69",1,69,"word","new","old",0,1.092921
"70",1,70,"word","old","new",0,1.070877
"71",1,71,"word","old","old",1,1.19174
"72",1,72,"word","new","new",1,1.294745
"73",1,73,"word","new","new",1,1.171161
"74",1,74,"word","old","old",1,1.47382
"75",1,75,"word","new","old",0,2.082073
"76",1,76,"word","old","old",1,0.959317
"77",1,77,"word","new","old",0,2.620673
"78",1,78,"word","old","old",1,1.297145
"79",1,79,"word","old","old",1,0.985938
"80",1,80,"word","old","old",1,1.215009
"81",1,81,"word","old","old",1,1.078531
"82",1,82,"word","old","new",0,1.617932
"83",1,83,"word","old","old",1,1.391234
"84",1,84,"word","new","old",0,0.878443
"85",1,85,"word","old","old",1,1.091784
"86",1,86,"word","old","new",0,1.286268
"87",1,87,"word","new","old",0,1.625917
"88",1,88,"word","old","old",1,1.475011
"89",1,89,"word","new","old",0,1.464702
"90",1,90,"word","old","old",1,1.91213
"91",1,91,"word","new","new",1,1.399703
"92",1,92,"word","new","new",1,0.982603
"93",1,93,"word","new","new",1,0.993422
"94",1,94,"word","new","new",1,0.861859
"95",1,95,"word","new","new",1,0.878464
"96",1,96,"word","new","new",1,0.977634
"97",1,97,"word","new","new",1,0.985887
"98",1,98,"word","new","new",1,0.983249
"99",1,99,"word","old","old",1,1.793803
"100",1,100,"word","old","new",0,2.336779
"101",1,101,"word","new","new",1,0.963081
"102",1,102,"word","new","new",1,0.985074
"103",1,103,"word","old","old",1,1.730079
"104",1,104,"word","new","old",0,1.073754
"105",1,105,"word","old","old",1,1.101673
"106",1,106,"word","new","new",1,1.487548
"107",1,107,"word","new","new",1,0.985791
"108",1,108,"word","old","old",1,2.158284
"109",1,109,"word","new","new",1,1.597145
"110",1,110,"word","new","new",1,0.993301
"111",1,111,"word","old","old",1,2.188753
"112",1,112,"word","old","old",1,0.980022
"113",1,113,"pict","old","old",1,1.085811
"114",1,114,"pict","old","old",1,1.092927
"115",1,115,"pict","old","old",1,0.98223
"116",1,116,"pict","new","new",1,1.48723
"117",1,117,"pict","new","new",1,1.087476
"118",1,118,"pict","old","old",1,1.595117
"119",1,119,"pict","old","old",1,0.982438
"120",1,120,"pict","old","old",1,1.375734
"121",1,121,"pict","old","new",0,1.499063
"122",1,122,"pict","new","new",1,1.083632
"123",1,123,"pict","old","old",1,1.49547
"124",1,124,"pict","new","new",1,1.385386
"125",1,125,"pict","new","new",1,0.869662
"126",1,126,"pict","new","new",1,0.990186
"127",1,127,"pict","old","old",1,1.390548
"128",1,128,"pict","new","new",1,1.405393
"129",1,129,"pict","old","old",1,1.494877
"130",1,130,"pict","old","new",0,2.173906
"131",1,131,"pict","old","old",1,1.360766
"132",1,132,"pict","old","old",1,0.959041
"133",1,133,"pict","new","new",1,1.489632
"134",1,134,"pict","new","new",1,1.461438
"135",1,135,"pict","old","new",0,1.409259
"136",1,136,"pict","old","old",1,1.698873
"137",1,137,"pict","old","old",1,1.588772
"138",1,138,"pict","old","new",0,1.266384
"139",1,139,"pict","new","new",1,0.963358
"140",1,140,"pict","old","old",1,1.284026
"141",1,141,"pict","new","new",1,1.27695
"142",1,142,"pict","old","old",1,1.297909
"143",1,143,"pict","old","old",1,1.166826
"144",1,144,"pict","old","old",1,1.60451
"145",1,145,"pict","new","new",1,1.392784
"146",1,146,"pict","old","new",0,2.106561
"147",1,147,"pict","old","old",1,1.178095
"148",1,148,"pict","new","new",1,1.378035
"149",1,149,"pict","new","new",1,1.584862
"150",1,150,"pict","old","new",0,0.985972
"151",1,151,"pict","new","new",1,1.108427
"152",1,152,"pict","old","old",1,1.393573
"153",1,153,"pict","new","new",1,1.40577
"154",1,154,"pict","new","new",1,0.96596
"155",1,155,"pict","old","old",1,1.388713
"156",1,156,"pict","old","old",1,1.371295
"157",1,157,"pict","old","old",1,1.208857
"158",1,158,"pict","old","old",1,1.382584
"159",1,159,"pict","new","old",0,1.822305
"160",1,160,"pict","old","new",0,1.29768
"161",1,161,"pict","new","new",1,0.988339
"162",1,162,"pict","old","old",1,1.917397
"163",1,163,"pict","old","old",1,0.991416
"164",1,164,"pict","old","old",1,1.32012
"165",1,165,"pict","old","old",1,1.209226
"166",1,166,"pict","old","new",0,1.389266
"167",1,167,"pict","old","new",0,1.087274
"168",1,168,"pict","new","new",1,0.983195
"169",1,169,"pict","new","new",1,0.99319
"170",1,170,"pict","old","new",0,1.423864
"171",1,171,"pict","old","new",0,1.092503
"172",1,172,"pict","old","old",1,1.587721
"173",1,173,"pict","old","old",1,1.471532
"174",1,174,"pict","old","old",1,1.2989
"175",1,175,"pict","new","new",1,1.294091
"176",1,176,"pict","old","old",1,2.030822
"177",1,177,"pict","new","new",1,1.61046
"178",1,178,"pict","new","new",1,0.98685
"179",1,179,"pict","new","new",1,0.968465
"180",1,180,"pict","new","new",1,1.310095
"181",1,181,"pict","old","old",1,3.345472
"182",1,182,"pict","new","new",1,1.925335
"183",1,183,"pict","old","old",1,1.616807
"184",1,184,"pict","new","new",1,1.507163
"185",1,185,"pict","new","new",1,1.418664
"186",1,186,"pict","old","old",1,1.343037
"187",1,187,"pict","new","new",1,1.578513
"188",1,188,"pict","new","new",1,1.191453
"189",1,189,"pict","new","new",1,0.980088
"190",1,190,"pict","old","new",0,1.654354
"191",1,191,"pict","old","new",0,1.073356
"192",1,192,"pict","new","new",1,1.090528
"193",1,193,"pict","new","new",1,0.979659
"194",1,194,"pict","new","new",1,1.526137
"195",1,195,"pict","old","old",1,1.709201
"196",1,196,"pict","new","new",1,1.627936
"197",1,197,"pict","new","new",1,1.095027
"198",1,198,"pict","new","new",1,0.985998
"199",1,199,"pict","new","new",1,1.077247
"200",1,200,"pict","old","old",1,1.903993
"201",1,201,"pict","old","new",0,2.726312
"202",1,202,"pict","old","new",0,2.145702
"203",1,203,"pict","new","new",1,0.984737
"204",1,204,"pict","old","new",0,1.295325
"205",1,205,"pict","new","new",1,0.9877
"206",1,206,"pict","new","new",1,1.053108
"207",1,207,"pict","old","old",1,1.402028
"208",1,208,"pict","new","new",1,1.177204
"209",1,209,"pict","new","new",1,1.093081
"210",1,210,"pict","new","new",1,1.090412
"211",1,211,"pict","new","new",1,0.976684
"212",1,212,"pict","new","new",1,1.415349
"213",1,213,"pict","new","new",1,1.211387
"214",1,214,"pict","new","new",1,1.066317
"215",1,215,"pict","new","new",1,1.077695
"216",1,216,"pict","old","new",0,1.171301
"217",1,217,"pict","old","new",0,1.197501
"218",1,218,"pict","new","new",1,0.989183
"219",1,219,"pict","new","new",1,1.090373
"220",1,220,"pict","new","new",1,1.185926
"221",1,221,"pict","new","new",1,1.209198
"222",1,222,"pict","new","new",1,1.748544
"223",1,223,"pict","old","new",0,1.318689
"224",1,224,"pict","new","new",1,1.098591
"225",10,1,"pict","new","old",0,3.794152
"226",10,2,"pict","old","old",1,1.304946
"227",10,3,"pict","new","new",1,1.517784
"228",10,4,"pict","old","new",0,1.417477
"229",10,5,"pict","old","old",1,1.486423
"230",10,6,"pict","old","new",0,1.404215
"231",10,7,"pict","old","old",1,1.609305
"232",10,8,"pict","new","old",0,2.232467
"233",10,9,"pict","old","old",1,1.202815
"234",10,10,"pict","new","new",1,1.393741
"235",10,11,"pict","new","new",1,1.309259
"236",10,12,"pict","new","new",1,1.177762
"237",10,13,"pict","old","new",0,1.586713
"238",10,14,"pict","old","old",1,1.715296
"239",10,15,"pict","new","new",1,1.922268
"240",10,16,"pict","old","old",1,1.386246
"241",10,17,"pict","old","old",1,0.987453
"242",10,18,"pict","old","old",1,0.878904
"243",10,19,"pict","new","new",1,1.616769
"244",10,20,"pict","old","old",1,1.375452
"245",10,21,"pict","new","new",1,1.725583
"246",10,22,"pict","new","new",1,1.362892
"247",10,23,"pict","new","new",1,1.305197
"248",10,24,"pict","old","old",1,1.412267
"249",10,25,"pict","new","old",0,1.207494
"250",10,26,"pict","old","old",1,1.083795
"251",10,27,"pict","new","old",0,1.103166
"252",10,28,"pict","new","new",1,1.406618
"253",10,29,"pict","new","new",1,1.573579
"254",10,30,"pict","old","old",1,1.168538
"255",10,31,"pict","new","new",1,1.500412
"256",10,32,"pict","old","old",1,1.391878
"257",10,33,"pict","new","old",0,1.405341
"258",10,34,"pict","new","new",1,1.512604
"259",10,35,"pict","new","new",1,1.499553
"260",10,36,"pict","old","old",1,1.388051
"261",10,37,"pict","old","old",1,1.067586
"262",10,38,"pict","new","new",1,1.489681
"263",10,39,"pict","old","old",1,1.379363
"264",10,40,"pict","old","old",1,1.193075
"265",10,41,"pict","old","old",1,0.97653
"266",10,42,"pict","new","old",0,1.210036
"267",10,43,"pict","new","new",1,1.47839
"268",10,44,"pict","old","old",1,1.547781
"269",10,45,"pict","old","old",1,1.068044
"270",10,46,"pict","old","old",1,1.712121
"271",10,47,"pict","new","old",0,0.980495
"272",10,48,"pict","old","new",0,1.184081
"273",10,49,"pict","new","new",1,2.25528
"274",10,50,"pict","old","new",0,1.182943
"275",10,51,"pict","old","new",0,1.566074
"276",10,52,"pict","old","new",0,1.07027
"277",10,53,"pict","old","old",1,1.490075
"278",10,54,"pict","new","old",0,1.811745
"279",10,55,"pict","new","new",1,1.687959
"280",10,56,"pict","old","old",1,1.371517
"281",10,57,"pict","new","new",1,1.727826
"282",10,58,"pict","new","new",1,1.823246
"283",10,59,"pict","new","new",1,2.118445
"284",10,60,"pict","old","old",1,1.383239
"285",10,61,"pict","new","new",1,1.407233
"286",10,62,"pict","old","old",1,1.384348
"287",10,63,"pict","old","old",1,1.091469
"288",10,64,"pict","new","new",1,1.602302
"289",10,65,"pict","new","new",1,1.815887
"290",10,66,"pict","old","old",1,1.494417
"291",10,67,"pict","new","new",1,1.708157
"292",10,68,"pict","new","new",1,1.172138
"293",10,69,"pict","old","old",1,1.380698
"294",10,70,"pict","new","old",0,1.091413
"295",10,71,"pict","old","old",1,1.816841
"296",10,72,"pict","new","new",1,1.512063
"297",10,73,"pict","old","new",0,1.493269
"298",10,74,"pict","old","old",1,1.372417
"299",10,75,"pict","new","old",0,0.99125
"300",10,76,"pict","old","old",1,0.992263
"301",10,77,"pict","new","new",1,1.51046
"302",10,78,"pict","new","new",1,1.090312
"303",10,79,"pict","new","new",1,1.103622
"304",10,80,"pict","old","new",0,1.87505
"305",10,81,"pict","new","new",1,1.086513
"306",10,82,"pict","old","new",0,2.624425
"307",10,83,"pict","old","old",1,1.391714
"308",10,84,"pict","new","old",0,1.311145
"309",10,85,"pict","new","new",1,1.803393
"310",10,86,"pict","new","new",1,1.400976
"311",10,87,"pict","old","new",0,1.19976
"312",10,88,"pict","new","new",1,1.080361
"313",10,89,"pict","old","new",0,1.398489
"314",10,90,"pict","new","new",1,1.077968
"315",10,91,"pict","new","new",1,1.10231
"316",10,92,"pict","old","new",0,0.980549
"317",10,93,"pict","new","new",1,0.988639
"318",10,94,"pict","new","new",1,1.088112
"319",10,95,"pict","old","old",1,1.493719
"320",10,96,"pict","old","new",0,1.713507
"321",10,97,"pict","old","new",0,1.790348
"322",10,98,"pict","old","old",1,1.492905
"323",10,99,"pict","old","new",0,1.851634
"324",10,100,"pict","old","new",0,1.617105
"325",10,101,"pict","new","new",1,1.313437
"326",10,102,"pict","new","new",1,1.489199
"327",10,103,"pict","new","new",1,1.527851
"328",10,104,"pict","old","old",1,1.610847
"329",10,105,"pict","new","new",1,1.48368
"330",10,106,"pict","old","old",1,1.517237
"331",10,107,"pict","new","new",1,1.598086
"332",10,108,"pict","old","old",1,1.939498
"333",10,109,"pict","new","new",1,1.388407
"334",10,110,"pict","old","old",1,2.290843
"335",10,111,"pict","new","new",1,1.823699
"336",10,112,"pict","old","old",1,1.810922
"337",10,113,"word","old","new",0,1.840293
"338",10,114,"word","old","old",1,2.444284
"339",10,115,"word","old","old",1,1.41928
"340",10,116,"word","old","old",1,1.101928
"341",10,117,"word","new","new",1,1.621036
"342",10,118,"word","new","new",1,1.093347
"343",10,119,"word","new","new",1,1.098164
"344",10,120,"word","new","new",1,1.209317
"345",10,121,"word","old","new",0,2.616
"346",10,122,"word","new","new",1,1.396061
"347",10,123,"word","old","new",0,1.310212
"348",10,124,"word","old","old",1,1.617511
"349",10,125,"word","old","new",0,1.628678
"350",10,126,"word","new","new",1,1.714992
"351",10,127,"word","new","new",1,1.082756
"352",10,128,"word","old","old",1,1.932348
"353",10,129,"word","old","new",0,1.830946
"354",10,130,"word","old","new",0,0.664304
"355",10,131,"word","new","new",1,1.406042
"356",10,132,"word","old","old",1,1.494846
"357",10,133,"word","new","new",1,1.05583
"358",10,134,"word","old","new",0,1.204948
"359",10,135,"word","old","old",1,1.736586
"360",10,136,"word","new","new",1,1.076691
"361",10,137,"word","new","new",1,1.816937
"362",10,138,"word","old","old",1,1.399838
"363",10,139,"word","new","new",1,1.189516
"364",10,140,"word","new","new",1,0.876163
"365",10,141,"word","new","new",1,1.09857
"366",10,142,"word","old","new",0,1.937794
"367",10,143,"word","old","new",0,0.864223
"368",10,144,"word","new","new",1,0.979155
"369",10,145,"word","old","new",0,0.97094
"370",10,146,"word","old","new",0,0.863936
"371",10,147,"word","new","new",1,1.086269
"372",10,148,"word","new","new",1,0.977292
"373",10,149,"word","old","new",0,0.876645
"374",10,150,"word","new","new",1,0.876103
"375",10,151,"word","new","new",1,0.877173
"376",10,152,"word","new","new",1,0.767122
"377",10,153,"word","new","new",1,0.764999
"378",10,154,"word","old","new",0,0.872399
"379",10,155,"word","old","old",1,1.379739
"380",10,156,"word","old","old",1,1.409596
"381",10,157,"word","new","new",1,0.972706
"382",10,158,"word","old","new",0,0.771278
"383",10,159,"word","old","new",0,0.767407
"384",10,160,"word","new","new",1,1.100913
"385",10,161,"word","old","new",0,1.21445
"386",10,162,"word","new","new",1,1.190092
"387",10,163,"word","new","new",1,0.755921
"388",10,164,"word","new","new",1,0.989932
"389",10,165,"word","new","new",1,0.877452
"390",10,166,"word","new","new",1,0.76708
"391",10,167,"word","old","new",0,0.767604
"392",10,168,"word","new","new",1,0.767755
"393",10,169,"word","old","new",0,0.882165
"394",10,170,"word","new","new",1,0.658029
"395",10,171,"word","new","new",1,0.983234
"396",10,172,"word","new","new",1,0.877416
"397",10,173,"word","old","new",0,0.767755
"398",10,174,"word","new","new",1,0.770399
"399",10,175,"word","new","new",1,0.767293
"400",10,176,"word","old","new",0,0.758547
"401",10,177,"word","new","new",1,0.770962
"402",10,178,"word","old","new",0,0.657222
"403",10,179,"word","new","new",1,0.996657
"404",10,180,"word","old","new",0,1.538729
"405",10,181,"word","old","new",0,1.303372
"406",10,182,"word","old","new",0,0.878175
"407",10,183,"word","new","new",1,1.216334
"408",10,184,"word","new","new",1,1.283202
"409",10,185,"word","new","new",1,1.088144
"410",10,186,"word","new","new",1,0.869329
"411",10,187,"word","old","new",0,1.728224
"412",10,188,"word","new","new",1,0.97706
"413",10,189,"word","new","old",0,1.847394
"414",10,190,"word","new","new",1,0.970235
"415",10,191,"word","old","new",0,0.539791
"416",10,192,"word","new","new",1,0.880288
"417",10,193,"word","old","new",0,0.74267
"418",10,194,"word","new","new",1,0.767677
"419",10,195,"word","new","new",1,0.876943
"420",10,196,"word","old","new",0,0.877425
"421",10,197,"word","old","new",0,0.755372
"422",10,198,"word","old","new",0,0.861254
"423",10,199,"word","new","new",1,0.861241
"424",10,200,"word","old","new",0,0.767975
"425",10,201,"word","old","new",0,0.767934
"426",10,202,"word","new","new",1,0.864767
"427",10,203,"word","old","new",0,0.757317
"428",10,204,"word","old","new",0,0.648838
"429",10,205,"word","old","new",0,0.658873
"430",10,206,"word","new","new",1,0.774141
"431",10,207,"word","old","new",0,0.771388
"432",10,208,"word","old","new",0,0.771182
"433",10,209,"word","old","new",0,1.095132
"434",10,210,"word","old","new",0,0.877156
"435",10,211,"word","new","new",1,0.880772
"436",10,212,"word","old","new",0,0.657783
"437",10,213,"word","old","old",1,1.486435
"438",10,214,"word","new","new",1,1.087208
"439",10,215,"word","new","new",1,0.439685
"440",10,216,"word","new","new",1,0.757364
"441",10,217,"word","old","new",0,0.65817
"442",10,218,"word","new","new",1,0.767802
"443",10,219,"word","old","new",0,0.658165
"444",10,220,"word","new","new",1,0.439201
"445",10,221,"word","old","new",0,0.430216
"446",10,222,"word","new","new",1,0.429349
"447",10,223,"word","old","new",0,0.101674
"448",10,224,"word","old","new",0,0.658975
"449",100,1,"word","new","new",1,2.017907
"450",100,2,"word","old","new",0,2.177374
"451",100,3,"word","new","new",1,1.075358
"452",100,4,"word","new","new",1,1.52967
"453",100,5,"word","new","new",1,1.304403
"454",100,6,"word","old","old",1,1.692943
"455",100,7,"word","new","new",1,1.495932
"456",100,8,"word","new","new",1,1.608993
"457",100,9,"word","old","old",1,1.406263
"458",100,10,"word","new","new",1,1.51542
"459",100,11,"word","old","old",1,1.625284
"460",100,12,"word","new","new",1,1.90502
"461",100,13,"word","new","old",0,1.842848
"462",100,14,"word","old","old",1,1.593154
"463",100,15,"word","new","new",1,1.718281
"464",100,16,"word","old","old",1,1.391312
"465",100,17,"word","old","new",0,2.465839
"466",100,18,"word","old","old",1,1.39074
"467",100,19,"word","old","old",1,1.312745
"468",100,20,"word","old","old",1,1.203569
"469",100,21,"word","old","old",1,1.203564
"470",100,22,"word","new","new",1,1.406385
"471",100,23,"word","new","new",1,1.577754
"472",100,24,"word","old","old",1,1.367288
"473",100,25,"word","new","new",1,1.510109
"474",100,26,"word","old","old",1,1.496616
"475",100,27,"word","old","old",1,1.484489
"476",100,28,"word","new","old",0,1.515521
"477",100,29,"word","new","new",1,2.763373
"478",100,30,"word","old","old",1,1.905177
"479",100,31,"word","old","old",1,1.281439
"480",100,32,"word","old","old",1,1.203475
"481",100,33,"word","old","old",1,1.094351
"482",100,34,"word","new","new",1,1.718248
"483",100,35,"word","new","new",1,1.187603
"484",100,36,"word","new","new",1,1.82706
"485",100,37,"word","new","new",1,1.194645
"486",100,38,"word","new","new",1,1.094361
"487",100,39,"word","new","new",1,1.422164
"488",100,40,"word","new","new",1,0.985065
"489",100,41,"word","old","old",1,2.124177
"490",100,42,"word","new","new",1,1.381714
"491",100,43,"word","old","new",0,1.181489
"492",100,44,"word","new","new",1,1.094241
"493",100,45,"word","old","new",0,1.187514
"494",100,46,"word","new","old",0,1.489113
"495",100,47,"word","old","old",1,1.586621
"496",100,48,"word","old","old",1,1.094259
"497",100,49,"word","new","old",0,1.749642
"498",100,50,"word","new","new",1,1.686847
"499",100,51,"word","new","new",1,1.281497
"500",100,52,"word","new","new",1,4.261358
"501",100,53,"word","new","new",1,3.37127
"502",100,54,"word","old","old",1,1.71856
"503",100,55,"word","old","old",1,1.485098
"504",100,56,"word","new","new",1,1.919663
"505",100,57,"word","old","old",1,1.718768
"506",100,58,"word","new","new",1,2.139167
"507",100,59,"word","old","old",1,1.376195
"508",100,60,"word","old","old",1,1.297265
"509",100,61,"word","old","old",1,1.312792
"510",100,62,"word","old","old",1,1.187804
"511",100,63,"word","old","old",1,1.09092
"512",100,64,"word","old","old",1,0.98555
"513",100,65,"word","new","new",1,1.500115
"514",100,66,"word","new","new",1,1.796433
"515",100,67,"word","old","old",1,2.373921
"516",100,68,"word","new","new",1,2.45135
"517",100,69,"word","new","new",1,1.312806
"518",100,70,"word","new","new",1,1.734054
"519",100,71,"word","old","old",1,1.501247
"520",100,72,"word","old","old",1,2.372459
"521",100,73,"word","old","old",1,1.203167
"522",100,74,"word","old","old",1,1.203543
"523",100,75,"word","old","old",1,1.094394
"524",100,76,"word","old","old",1,0.985217
"525",100,77,"word","new","new",1,1.609411
"526",100,78,"word","new","new",1,1.718446
"527",100,79,"word","old","new",0,2.248754
"528",100,80,"word","new","new",1,1.515406
"529",100,81,"word","new","new",1,2.077065
"530",100,82,"word","new","old",0,1.515859
"531",100,83,"word","old","old",1,1.085937
"532",100,84,"word","old","old",1,1.523836
"533",100,85,"word","old","old",1,2.793704
"534",100,86,"word","new","old",0,1.29742
"535",100,87,"word","old","old",1,2.185967
"536",100,88,"word","old","new",0,2.154989
"537",100,89,"word","old","old",1,1.718626
"538",100,90,"word","new","new",1,2.234204
"539",100,91,"word","old","old",1,2.107346
"540",100,92,"word","new","new",1,1.500402
"541",100,93,"word","old","new",0,1.703096
"542",100,94,"word","new","new",1,1.60954
"543",100,95,"word","old","old",1,1.500109
"544",100,96,"word","old","old",1,1.095522
"545",100,97,"word","new","new",1,1.827796
"546",100,98,"word","new","new",1,1.531281
"547",100,99,"word","new","new",1,1.203183
"548",100,100,"word","new","new",1,1.632422
"549",100,101,"word","new","new",1,1.203636
"550",100,102,"word","new","new",1,1.312491
"551",100,103,"word","new","old",0,1.718924
"552",100,104,"word","old","old",1,1.094169
"553",100,105,"word","new","new",1,1.483504
"554",100,106,"word","old","old",1,1.500407
"555",100,107,"word","old","old",1,1.203804
"556",100,108,"word","new","new",1,1.515833
"557",100,109,"word","old","old",1,1.500535
"558",100,110,"word","new","new",1,1.50058
"559",100,111,"word","old","old",1,1.391004
"560",100,112,"word","old","old",1,1.201328
"561",100,113,"pict","old","old",1,1.849221
"562",100,114,"pict","old","new",0,3.013258
"563",100,115,"pict","old","old",1,1.595143
"564",100,116,"pict","new","new",1,1.473677
"565",100,117,"pict","old","old",1,1.482397
"566",100,118,"pict","new","new",1,1.796444
"567",100,119,"pict","new","new",1,1.291006
"568",100,120,"pict","old","old",1,1.368811
"569",100,121,"pict","old","old",1,1.788664
"570",100,122,"pict","new","new",1,1.286279
"571",100,123,"pict","new","new",1,1.285632
"572",100,124,"pict","old","old",1,1.514143
"573",100,125,"pict","new","new",1,1.365328
"574",100,126,"pict","new","new",1,1.263074
"575",100,127,"pict","old","old",1,1.495261
"576",100,128,"pict","old","old",1,1.491783
"577",100,129,"pict","old","old",1,1.730058
"578",100,130,"pict","new","new",1,1.378725
"579",100,131,"pict","new","new",1,0.974607
"580",100,132,"pict","new","new",1,1.305218
"581",100,133,"pict","old","old",1,1.279829
"582",100,134,"pict","old","old",1,0.978407
"583",100,135,"pict","new","new",1,1.401967
"584",100,136,"pict","old","old",1,2.674151
"585",100,137,"pict","old","new",0,1.714088
"586",100,138,"pict","old","old",1,1.482847
"587",100,139,"pict","new","new",1,1.463012
"588",100,140,"pict","new","new",1,1.079496
"589",100,141,"pict","old","old",1,1.281428
"590",100,142,"pict","old","old",1,1.080726
"591",100,143,"pict","old","old",1,1.093996
"592",100,144,"pict","old","old",1,1.082236
"593",100,145,"pict","new","new",1,1.499052
"594",100,146,"pict","new","old",0,1.903836
"595",100,147,"pict","new","new",1,1.493502
"596",100,148,"pict","old","old",1,1.56581
"597",100,149,"pict","new","new",1,1.591271
"598",100,150,"pict","new","new",1,1.375793
"599",100,151,"pict","old","old",1,1.383096
"600",100,152,"pict","new","old",0,1.641393
"601",100,153,"pict","new","new",1,1.600442
"602",100,154,"pict","old","old",1,1.288364
"603",100,155,"pict","new","new",1,1.475223
"604",100,156,"pict","old","old",1,2.233503
"605",100,157,"pict","old","old",1,1.827795
"606",100,158,"pict","old","old",1,1.092552
"607",100,159,"pict","old","old",1,1.091088
"608",100,160,"pict","new","new",1,1.59039
"609",100,161,"pict","new","new",1,1.295797
"610",100,162,"pict","old","new",0,1.196543
"611",100,163,"pict","new","new",1,1.07491
"612",100,164,"pict","new","new",1,1.095371
"613",100,165,"pict","old","old",1,1.895506
"614",100,166,"pict","new","new",1,2.033956
"615",100,167,"pict","new","new",1,2.001025
"616",100,168,"pict","old","new",0,1.295106
"617",100,169,"pict","old","new",0,1.196574
"618",100,170,"pict","old","old",1,1.4151
"619",100,171,"pict","old","old",1,1.082215
"620",100,172,"pict","new","new",1,1.498402
"621",100,173,"pict","new","new",1,1.200951
"622",100,174,"pict","new","old",0,1.808977
"623",100,175,"pict","old","old",1,1.492107
"624",100,176,"pict","new","new",1,1.591597
"625",100,177,"pict","new","new",1,1.315662
"626",100,178,"pict","old","new",0,1.513676
"627",100,179,"pict","old","old",1,1.891238
"628",100,180,"pict","old","old",1,1.706407
"629",100,181,"pict","new","new",1,2.567967
"630",100,182,"pict","new","new",1,0.969546
"631",100,183,"pict","old","old",1,1.498624
"632",100,184,"pict","new","new",1,2.046869
"633",100,185,"pict","new","new",1,1.19366
"634",100,186,"pict","old","old",1,1.735416
"635",100,187,"pict","old","old",1,1.636138
"636",100,188,"pict","old","new",0,1.826796
"637",100,189,"pict","new","new",1,1.373892
"638",100,190,"pict","old","new",0,0.985505
"639",100,191,"pict","new","new",1,1.526329
"640",100,192,"pict","new","new",1,1.192853
"641",100,193,"pict","new","new",1,1.181563
"642",100,194,"pict","old","old",1,1.709603
"643",100,195,"pict","new","new",1,1.358275
"644",100,196,"pict","new","new",1,1.082974
"645",100,197,"pict","new","new",1,1.198432
"646",100,198,"pict","old","old",1,1.37877
"647",100,199,"pict","old","old",1,1.571192
"648",100,200,"pict","old","old",1,1.70114
"649",100,201,"pict","new","new",1,1.60505
"650",100,202,"pict","old","old",1,3.679669
"651",100,203,"pict","new","new",1,1.790307
"652",100,204,"pict","new","old",0,2.32998
"653",100,205,"pict","old","old",1,1.600633
"654",100,206,"pict","new","old",0,3.566433
"655",100,207,"pict","new","new",1,1.588812
"656",100,208,"pict","new","new",1,2.39614
"657",100,209,"pict","old","old",1,2.018552
"658",100,210,"pict","old","old",1,1.890117
"659",100,211,"pict","new","new",1,1.517338
"660",100,212,"pict","old","old",1,1.382485
"661",100,213,"pict","new","new",1,1.493704
"662",100,214,"pict","old","old",1,1.386562
"663",100,215,"pict","new","new",1,1.698378
"664",100,216,"pict","old","old",1,1.826447
"665",100,217,"pict","old","old",1,1.085672
"666",100,218,"pict","old","old",1,1.196139
"667",100,219,"pict","new","new",1,1.618478
"668",100,220,"pict","old","old",1,1.165484
"669",100,221,"pict","new","old",0,1.096556
"670",100,222,"pict","new","new",1,1.624466
"671",100,223,"pict","new","new",1,1.090222
"672",100,224,"pict","old","old",1,2.131664
"673",101,1,"word","old","new",0,1.40733
"674",101,2,"word","new","new",1,0.301621
"675",101,3,"word","old","new",0,1.908031
"676",101,4,"word","old","old",1,1.304396
"677",101,5,"word","new","new",1,1.505475
"678",101,6,"word","old","old",1,1.305211
"679",101,7,"word","old","old",1,0.501949
"680",101,8,"word","old","old",1,0.502342
"681",101,9,"word","new","new",1,0.602609
"682",101,10,"word","old","old",1,0.603066
"683",101,11,"word","new","new",1,0.603029
"684",101,12,"word","new","old",0,0.703044
"685",101,13,"word","new","new",1,0.602645
"686",101,14,"word","old","old",1,0.603428
"687",101,15,"word","old","new",0,0.602699
"688",101,16,"word","old","old",1,0.702346
"689",101,17,"word","old","new",0,0.606481
"690",101,18,"word","new","old",0,0.502472
"691",101,19,"word","new","new",1,0.502016
"692",101,20,"word","new","old",0,0.502484
"693",101,21,"word","old","old",1,0.602431
"694",101,22,"word","old","old",1,0.301499
"695",101,23,"word","new","old",0,0.101098
"696",101,24,"word","old","old",1,0.302065
"697",101,25,"word","new","old",0,0.30181
"698",101,26,"word","new","old",0,0.301424
"699",101,27,"word","new","old",0,0.301729
"700",101,28,"word","new","old",0,0.301832
"701",101,29,"word","new","old",0,0.101019
"702",101,30,"word","new","old",0,0.302151
"703",101,31,"word","old","new",0,0.402069
"704",101,32,"word","old","new",0,0.301843
"705",101,33,"word","new","new",1,0.100876
"706",101,34,"word","old","new",0,0.101466
"707",101,35,"word","old","new",0,0.201832
"708",101,36,"word","new","new",1,0.101106
"709",101,37,"word","old","new",0,0.301922
"710",101,38,"word","old","new",0,0.301297
"711",101,39,"word","old","new",0,0.30176
"712",101,40,"word","old","new",0,0.100854
"713",101,41,"word","old","new",0,0.100953
"714",101,42,"word","old","new",0,0.301439
"715",101,43,"word","new","new",1,0.101223
"716",101,44,"word","new","new",1,0.101081
"717",101,45,"word","old","new",0,0.201363
"718",101,46,"word","new","new",1,0.100934
"719",101,47,"word","new","new",1,0.100893
"720",101,48,"word","old","new",0,0.201671
"721",101,49,"word","new","new",1,0.100845
"722",101,50,"word","old","new",0,0.20209
"723",101,51,"word","old","old",1,0.504637
"724",101,52,"word","new","old",0,0.301773
"725",101,53,"word","new","old",0,0.30172
"726",101,54,"word","old","old",1,0.100972
"727",101,55,"word","new","old",0,0.100958
"728",101,56,"word","old","old",1,0.201428
"729",101,57,"word","new","old",0,0.101333
"730",101,58,"word","old","old",1,0.402572
"731",101,59,"word","old","old",1,0.301798
"732",101,60,"word","new","old",0,0.101035
"733",101,61,"word","old","old",1,0.302071
"734",101,62,"word","new","old",0,0.302263
"735",101,63,"word","old","old",1,0.101012
"736",101,64,"word","new","old",0,0.101042
"737",101,65,"word","new","old",0,0.201942
"738",101,66,"word","new","old",0,0.101335
"739",101,67,"word","new","new",1,0.603038
"740",101,68,"word","old","new",0,0.30183
"741",101,69,"word","new","new",1,0.301795
"742",101,70,"word","new","new",1,0.301736
"743",101,71,"word","old","new",0,0.100966
"744",101,72,"word","new","old",0,0.602395
"745",101,73,"word","new","new",1,1.204681
"746",101,74,"word","new","old",0,0.903503
"747",101,75,"word","old","new",0,0.502405
"748",101,76,"word","old","old",1,0.502676
"749",101,77,"word","old","new",0,0.402122
"750",101,78,"word","old","old",1,0.402041
"751",101,79,"word","old","new",0,0.401965
"752",101,80,"word","old","old",1,0.401807
"753",101,81,"word","new","new",1,0.301828
"754",101,82,"word","new","old",0,0.401834
"755",101,83,"word","new","new",1,0.402324
"756",101,84,"word","new","old",0,0.602571
"757",101,85,"word","old","new",0,0.502416
"758",101,86,"word","old","old",1,0.402566
"759",101,87,"word","new","new",1,0.602856
"760",101,88,"word","new","new",1,1.204474
"761",101,89,"word","new","old",0,0.402099
"762",101,90,"word","new","new",1,0.502641
"763",101,91,"word","old","old",1,0.502223
"764",101,92,"word","new","new",1,0.401719
"765",101,93,"word","old","old",1,0.40195
"766",101,94,"word","new","new",1,0.40186
"767",101,95,"word","new","old",0,0.401968
"768",101,96,"word","new","new",1,0.401943
"769",101,97,"word","new","new",1,0.803232
"770",101,98,"word","new","new",1,0.301703
"771",101,99,"word","old","new",0,0.301675
"772",101,100,"word","new","new",1,0.100819
"773",101,101,"word","new","new",1,0.201928
"774",101,102,"word","old","new",0,0.100946
"775",101,103,"word","old","new",0,0.201625
"776",101,104,"word","old","new",0,0.201577
"777",101,105,"word","old","new",0,0.201517
"778",101,106,"word","old","new",0,0.201378
"779",101,107,"word","old","new",0,0.100955
"780",101,108,"word","old","new",0,0.201624
"781",101,109,"word","new","new",1,0.201244
"782",101,110,"word","old","new",0,0.100983
"783",101,111,"word","old","new",0,0.203196
"784",101,112,"word","new","old",0,0.402045
"785",101,113,"pict","new","old",0,0.304081
"786",101,114,"pict","old","old",1,0.102016
"787",101,115,"pict","old","old",1,0.100792
"788",101,116,"pict","old","old",1,0.100807
"789",101,117,"pict","old","old",1,0.100903
"790",101,118,"pict","new","old",0,0.101002
"791",101,119,"pict","old","old",1,0.100848
"792",101,120,"pict","old","old",1,0.100722
"793",101,121,"pict","old","old",1,0.100888
"794",101,122,"pict","old","old",1,0.402481
"795",101,123,"pict","new","old",0,0.301703
"796",101,124,"pict","new","old",0,0.100778
"797",101,125,"pict","new","old",0,0.10105
"798",101,126,"pict","old","old",1,0.100842
"799",101,127,"pict","new","new",1,0.301818
"800",101,128,"pict","new","new",1,0.100817
"801",101,129,"pict","old","new",0,0.101033
"802",101,130,"pict","old","new",0,0.100951
"803",101,131,"pict","new","new",1,0.101008
"804",101,132,"pict","new","new",1,2.107015
"805",101,133,"pict","new","new",1,0.301583
"806",101,134,"pict","new","new",1,0.10088
"807",101,135,"pict","new","new",1,0.100996
"808",101,136,"pict","old","new",0,0.101224
"809",101,137,"pict","new","new",1,0.100993
"810",101,138,"pict","old","new",0,0.101207
"811",101,139,"pict","new","new",1,0.101167
"812",101,140,"pict","old","old",1,0.703991
"813",101,141,"pict","old","old",1,0.100946
"814",101,142,"pict","new","old",0,0.100861
"815",101,143,"pict","old","old",1,0.100879
"816",101,144,"pict","new","old",0,0.100859
"817",101,145,"pict","new","old",0,0.100835
"818",101,146,"pict","old","old",1,0.100904
"819",101,147,"pict","old","old",1,0.10097
"820",101,148,"pict","old","old",1,0.101168
"821",101,149,"pict","old","old",1,0.100806
"822",101,150,"pict","new","old",0,0.100976
"823",101,151,"pict","old","new",0,0.100938
"824",101,152,"pict","new","old",0,0.100852
"825",101,153,"pict","new","new",1,0.3025
"826",101,154,"pict","old","old",1,0.402394
"827",101,155,"pict","old","new",0,0.100899
"828",101,156,"pict","new","old",0,0.100947
"829",101,157,"pict","new","new",1,0.101301
"830",101,158,"pict","new","new",1,0.502492
"831",101,159,"pict","new","old",0,0.402652
"832",101,160,"pict","new","new",1,0.402762
"833",101,161,"pict","old","old",1,0.100911
"834",101,162,"pict","new","new",1,0.502477
"835",101,163,"pict","new","old",0,0.404067
"836",101,164,"pict","new","new",1,0.402592
"837",101,165,"pict","old","old",1,0.101416
"838",101,166,"pict","new","new",1,0.100944
"839",101,167,"pict","old","old",1,0.403159
"840",101,168,"pict","old","new",0,0.10688
"841",101,169,"pict","old","old",1,0.101136
"842",101,170,"pict","new","new",1,0.402614
"843",101,171,"pict","new","old",0,0.402203
"844",101,172,"pict","old","old",1,0.100999
"845",101,173,"pict","new","old",0,0.101044
"846",101,174,"pict","old","old",1,0.100897
"847",101,175,"pict","old","old",1,0.101121
"848",101,176,"pict","old","old",1,0.10119
"849",101,177,"pict","old","old",1,0.101001
"850",101,178,"pict","new","old",0,0.100999
"851",101,179,"pict","new","old",0,0.101042
"852",101,180,"pict","new","old",0,0.100966
"853",101,181,"pict","old","old",1,0.100896
"854",101,182,"pict","new","old",0,0.10104
"855",101,183,"pict","new","old",0,0.10099
"856",101,184,"pict","new","old",0,0.100959
"857",101,185,"pict","old","old",1,0.100932
"858",101,186,"pict","old","old",1,0.10101
"859",101,187,"pict","new","old",0,0.101015
"860",101,188,"pict","new","old",0,0.100811
"861",101,189,"pict","new","old",0,0.100983
"862",101,190,"pict","new","old",0,0.101004
"863",101,191,"pict","new","old",0,0.100961
"864",101,192,"pict","old","old",1,0.10095
"865",101,193,"pict","old","old",1,0.101035
"866",101,194,"pict","new","old",0,0.100732
"867",101,195,"pict","new","old",0,0.10082
"868",101,196,"pict","new","old",0,0.100533
"869",101,197,"pict","old","old",1,0.100742
"870",101,198,"pict","old","old",1,0.100916
"871",101,199,"pict","old","old",1,0.100987
"872",101,200,"pict","new","old",0,0.101067
"873",101,201,"pict","new","old",0,0.100795
"874",101,202,"pict","new","old",0,0.100412
"875",101,203,"pict","new","old",0,0.207377
"876",101,204,"pict","old","new",0,0.402269
"877",101,205,"pict","old","new",0,0.100833
"878",101,206,"pict","new","new",1,0.903651
"879",101,207,"pict","old","new",0,0.402455
"880",101,208,"pict","old","new",0,0.402319
"881",101,209,"pict","new","new",1,0.402335
"882",101,210,"pict","old","new",0,0.402322
"883",101,211,"pict","new","new",1,0.100785
"884",101,212,"pict","old","new",0,0.101191
"885",101,213,"pict","old","new",0,0.10093
"886",101,214,"pict","old","new",0,0.100829
"887",101,215,"pict","old","new",0,0.101002
"888",101,216,"pict","new","new",1,0.10077
"889",101,217,"pict","old","new",0,0.216976
"890",101,218,"pict","old","new",0,0.100945
"891",101,219,"pict","old","new",0,0.100863
"892",101,220,"pict","new","new",1,0.100643
"893",101,221,"pict","old","new",0,0.215333
"894",101,222,"pict","old","new",0,0.100862
"895",101,223,"pict","old","new",0,0.101181
"896",101,224,"pict","new","new",1,0.100904
"897",102,1,"pict","old","old",1,1.465491
"898",102,2,"pict","old","old",1,1.093213
"899",102,3,"pict","old","old",1,0.980259
"900",102,4,"pict","new","old",0,1.632363
"901",102,5,"pict","new","new",1,1.597788
"902",102,6,"pict","new","new",1,1.164593
"903",102,7,"pict","old","new",0,1.991016
"904",102,8,"pict","new","new",1,1.353729
"905",102,9,"pict","old","old",1,1.156125
"906",102,10,"pict","old","old",1,1.824698
"907",102,11,"pict","new","new",1,2.246001
"908",102,12,"pict","old","old",1,1.144456
"909",102,13,"pict","new","new",1,1.351798
"910",102,14,"pict","new","new",1,1.587849
"911",102,15,"pict","old","new",0,1.276289
"912",102,16,"pict","old","new",0,1.396072
"913",102,17,"pict","old","old",1,2.133512
"914",102,18,"pict","new","new",1,1.379311
"915",102,19,"pict","new","new",1,1.273146
"916",102,20,"pict","new","new",1,1.279287
"917",102,21,"pict","old","new",0,1.376624
"918",102,22,"pict","old","old",1,2.681718
"919",102,23,"pict","old","old",1,1.161886
"920",102,24,"pict","new","new",1,1.508989
"921",102,25,"pict","old","old",1,1.365545
"922",102,26,"pict","new","new",1,1.589797
"923",102,27,"pict","new","new",1,1.899571
"924",102,28,"pict","new","new",1,1.198351
"925",102,29,"pict","old","old",1,1.932757
"926",102,30,"pict","new","new",1,1.287747
"927",102,31,"pict","old","old",1,1.490479
"928",102,32,"pict","new","new",1,1.393891
"929",102,33,"pict","new","new",1,1.190453
"930",102,34,"pict","new","new",1,1.901614
"931",102,35,"pict","new","new",1,1.379235
"932",102,36,"pict","new","new",1,1.280656
"933",102,37,"pict","new","new",1,1.271648
"934",102,38,"pict","new","new",1,1.525864
"935",102,39,"pict","new","old",0,1.692868
"936",102,40,"pict","new","new",1,1.065093
"937",102,41,"pict","old","new",0,1.456716
"938",102,42,"pict","old","old",1,1.459235
"939",102,43,"pict","old","old",1,1.276326
"940",102,44,"pict","old","old",1,1.204805
"941",102,45,"pict","new","new",1,1.492629
"942",102,46,"pict","old","old",1,1.172271
"943",102,47,"pict","new","new",1,1.272756
"944",102,48,"pict","new","new",1,1.074755
"945",102,49,"pict","new","new",1,0.974762
"946",102,50,"pict","new","new",1,1.405967
"947",102,51,"pict","new","old",0,1.896393
"948",102,52,"pict","new","new",1,1.48183
"949",102,53,"pict","old","old",1,1.795125
"950",102,54,"pict","old","old",1,1.164589
"951",102,55,"pict","old","old",1,1.273324
"952",102,56,"pict","old","new",0,1.299391
"953",102,57,"pict","new","new",1,1.082649
"954",102,58,"pict","old","new",0,1.183045
"955",102,59,"pict","old","old",1,1.269212
"956",102,60,"pict","old","old",1,1.827306
"957",102,61,"pict","new","new",1,1.603102
"958",102,62,"pict","new","new",1,1.349867
"959",102,63,"pict","old","old",1,1.395218
"960",102,64,"pict","old","new",0,1.470283
"961",102,65,"pict","old","old",1,2.142046
"962",102,66,"pict","old","old",1,1.490789
"963",102,67,"pict","old","old",1,2.197239
"964",102,68,"pict","new","new",1,1.290127
"965",102,69,"pict","new","new",1,1.784065
"966",102,70,"pict","old","old",1,1.64072
"967",102,71,"pict","old","new",0,2.047331
"968",102,72,"pict","new","new",1,1.404278
"969",102,73,"pict","old","new",0,1.392156
"970",102,74,"pict","old","new",0,1.496712
"971",102,75,"pict","old","old",1,1.46884
"972",102,76,"pict","new","new",1,1.682052
"973",102,77,"pict","new","new",1,1.39934
"974",102,78,"pict","new","new",1,1.174758
"975",102,79,"pict","old","new",0,1.614506
"976",102,80,"pict","old","old",1,1.285383
"977",102,81,"pict","old","new",0,1.376255
"978",102,82,"pict","old","new",0,1.862677
"979",102,83,"pict","new","new",1,1.911624
"980",102,84,"pict","old","old",1,2.310407
"981",102,85,"pict","old","old",1,1.25733
"982",102,86,"pict","new","new",1,1.503781
"983",102,87,"pict","old","old",1,1.39924
"984",102,88,"pict","new","new",1,1.403624
"985",102,89,"pict","new","new",1,2.030408
"986",102,90,"pict","old","old",1,2.643992
"987",102,91,"pict","old","old",1,1.503001
"988",102,92,"pict","new","new",1,1.482934
"989",102,93,"pict","new","new",1,1.275493
"990",102,94,"pict","old","old",1,1.27535
"991",102,95,"pict","old","new",0,1.180309
"992",102,96,"pict","new","new",1,1.285856
"993",102,97,"pict","new","new",1,1.179126
"994",102,98,"pict","new","new",1,1.397844
"995",102,99,"pict","old","new",0,1.916798
"996",102,100,"pict","new","new",1,1.818975
"997",102,101,"pict","old","old",1,1.704393
"998",102,102,"pict","new","new",1,1.594526
"999",102,103,"pict","old","old",1,1.48287
"1000",102,104,"pict","new","new",1,4.264879
"1001",102,105,"pict","old","new",0,1.722286
"1002",102,106,"pict","new","old",0,1.397348
"1003",102,107,"pict","new","new",1,1.389231
"1004",102,108,"pict","old","old",1,1.36879
"1005",102,109,"pict","new","new",1,1.385534
"1006",102,110,"pict","old","new",0,1.513456
"1007",102,111,"pict","new","old",0,1.251013
"1008",102,112,"pict","old","new",0,1.574857
"1009",102,113,"word","new","new",1,3.007028
"1010",102,114,"word","old","old",1,1.260193
"1011",102,115,"word","new","new",1,1.480904
"1012",102,116,"word","new","new",1,2.278987
"1013",102,117,"word","old","old",1,2.77704
"1014",102,118,"word","new","new",1,1.483883
"1015",102,119,"word","new","old",0,1.078195
"1016",102,120,"word","old","old",1,1.265718
"1017",102,121,"word","new","new",1,1.811202
"1018",102,122,"word","new","old",0,1.48406
"1019",102,123,"word","old","old",1,1.381991
"1020",102,124,"word","old","new",0,1.272858
"1021",102,125,"word","old","old",1,1.187661
"1022",102,126,"word","new","old",0,1.281201
"1023",102,127,"word","old","new",0,0.953786
"1024",102,128,"word","old","new",0,1.20276
"1025",102,129,"word","new","new",1,1.094014
"1026",102,130,"word","new","new",1,0.985063
"1027",102,131,"word","new","old",0,1.818358
"1028",102,132,"word","old","new",0,1.165321
"1029",102,133,"word","old","new",0,1.312501
"1030",102,134,"word","new","new",1,1.094282
"1031",102,135,"word","old","new",0,1.624714
"1032",102,136,"word","new","old",0,1.515581
"1033",102,137,"word","old","old",1,1.18768
"1034",102,138,"word","new","new",1,0.969294
"1035",102,139,"word","new","new",1,1.094135
"1036",102,140,"word","new","new",1,2.170515
"1037",102,141,"word","new","new",1,1.187886
"1038",102,142,"word","old","old",1,1.505545
"1039",102,143,"word","old","old",1,1.242942
"1040",102,144,"word","new","new",1,1.702138
"1041",102,145,"word","old","new",0,1.390938
"1042",102,146,"word","old","old",1,1.593732
"1043",102,147,"word","old","new",0,1.094346
"1044",102,148,"word","new","new",1,1.203363
"1045",102,149,"word","new","new",1,1.094012
"1046",102,150,"word","new","old",0,1.497409
"1047",102,151,"word","old","old",1,1.482503
"1048",102,152,"word","old","new",0,0.848434
"1049",102,153,"word","old","new",0,1.109653
"1050",102,154,"word","new","new",1,1.093828
"1051",102,155,"word","old","new",0,1.858553
"1052",102,156,"word","new","new",1,1.094026
"1053",102,157,"word","new","new",1,1.312535
"1054",102,158,"word","new","new",1,1.203308
"1055",102,159,"word","old","new",0,2.232862
"1056",102,160,"word","old","new",0,1.82726
"1057",102,161,"word","old","old",1,1.077788
"1058",102,162,"word","old","new",0,0.548355
"1059",102,163,"word","old","new",0,1.203565
"1060",102,164,"word","old","old",1,2.137995
"1061",102,165,"word","new","new",1,1.310131
"1062",102,166,"word","new","new",1,1.206976
"1063",102,167,"word","new","new",1,0.969639
"1064",102,168,"word","old","old",1,2.208552
"1065",102,169,"word","old","old",1,1.384146
"1066",102,170,"word","new","new",1,1.094032
"1067",102,171,"word","old","new",0,1.094331
"1068",102,172,"word","old","new",0,1.203698
"1069",102,173,"word","new","new",1,1.437429
"1070",102,174,"word","old","new",0,0.985127
"1071",102,175,"word","new","new",1,2.030337
"1072",102,176,"word","old","new",0,1.827719
"1073",102,177,"word","old","old",1,1.375303
"1074",102,178,"word","old","old",1,1.422013
"1075",102,179,"word","old","new",0,2.31059
"1076",102,180,"word","new","old",0,2.872294
"1077",102,181,"word","old","old",1,1.58823
"1078",102,182,"word","old","new",0,1.052661
"1079",102,183,"word","new","new",1,1.094734
"1080",102,184,"word","new","new",1,0.873809
"1081",102,185,"word","old","new",0,0.985425
"1082",102,186,"word","new","new",1,0.766511
"1083",102,187,"word","old","new",0,1.083534
"1084",102,188,"word","new","new",1,1.087362
"1085",102,189,"word","old","new",0,1.194913
"1086",102,190,"word","old","new",0,1.203736
"1087",102,191,"word","new","old",0,1.511865
"1088",102,192,"word","new","new",1,1.597216
"1089",102,193,"word","old","new",0,1.172305
"1090",102,194,"word","new","new",1,1.615541
"1091",102,195,"word","new","new",1,1.197266
"1092",102,196,"word","new","new",1,2.959413
"1093",102,197,"word","old","old",1,1.382086
"1094",102,198,"word","new","new",1,1.31335
"1095",102,199,"word","new","new",1,1.312815
"1096",102,200,"word","old","old",1,1.640667
"1097",102,201,"word","new","old",0,1.805915
"1098",102,202,"word","new","new",1,1.490559
"1099",102,203,"word","old","old",1,1.297078
"1100",102,204,"word","old","old",1,1.39104
"1101",102,205,"word","old","new",0,1.281309
"1102",102,206,"word","old","new",0,1.203825
"1103",102,207,"word","new","new",1,1.079189
"1104",102,208,"word","old","old",1,1.2771
"1105",102,209,"word","old","new",0,0.84934
"1106",102,210,"word","new","new",1,0.891768
"1107",102,211,"word","new","new",1,0.76692
"1108",102,212,"word","new","new",1,0.759471
"1109",102,213,"word","new","new",1,1.741508
"1110",102,214,"word","old","old",1,1.609407
"1111",102,215,"word","old","old",1,1.490977
"1112",102,216,"word","new","new",1,1.384227
"1113",102,217,"word","new","new",1,0.87621
"1114",102,218,"word","old","new",0,0.657769
"1115",102,219,"word","new","new",1,0.76686
"1116",102,220,"word","old","new",0,0.657811
"1117",102,221,"word","new","new",1,0.657896
"1118",102,222,"word","old","new",0,0.985532
"1119",102,223,"word","new","new",1,0.985597
"1120",102,224,"word","new","new",1,2.077336
"1121",103,1,"word","old","old",1,2.431474
"1122",103,2,"word","new","new",1,1.878852
"1123",103,3,"word","old","old",1,1.47771
"1124",103,4,"word","old","old",1,1.076185
"1125",103,5,"word","new","old",0,0.983325
"1126",103,6,"word","new","new",1,2.262434
"1127",103,7,"word","new","new",1,2.029914
"1128",103,8,"word","new","new",1,3.059667
"1129",103,9,"word","old","old",1,1.717393
"1130",103,10,"word","old","old",1,1.186503
"1131",103,11,"word","new","new",1,3.090104
"1132",103,12,"word","new","new",1,4.04165
"1133",103,13,"word","old","old",1,1.171755
"1134",103,14,"word","old","old",1,0.984414
"1135",103,15,"word","old","old",1,0.984512
"1136",103,16,"word","old","old",1,0.865562
"1137",103,17,"word","new","new",1,1.711233
"1138",103,18,"word","old","old",1,1.810979
"1139",103,19,"word","old","new",0,3.558586
"1140",103,20,"word","new","new",1,9.081211
"1141",103,21,"word","new","new",1,1.686527
"1142",103,22,"word","new","old",0,1.57772
"1143",103,23,"word","old","old",1,1.592862
"1144",103,24,"word","old","old",1,1.093864
"1145",103,25,"word","new","new",1,1.795968
"1146",103,26,"word","new","new",1,3.262375
"1147",103,27,"word","old","old",1,1.592976
"1148",103,28,"word","old","old",1,1.624614
"1149",103,29,"word","old","old",1,1.078626
"1150",103,30,"word","old","new",0,1.623332
"1151",103,31,"word","new","new",1,1.577569
"1152",103,32,"word","new","new",1,1.998661
"1153",103,33,"word","old","new",0,1.697873
"1154",103,34,"word","old","old",1,1.472989
"1155",103,35,"word","old","new",0,1.265025
"1156",103,36,"word","old","new",0,2.793991
"1157",103,37,"word","old","old",1,1.283242
"1158",103,38,"word","new","new",1,1.715457
"1159",103,39,"word","new","new",1,1.48365
"1160",103,40,"word","old","old",1,1.062248
"1161",103,41,"word","new","old",0,0.875608
"1162",103,42,"word","old","old",1,3.059202
"1163",103,43,"word","new","new",1,2.669592
"1164",103,44,"word","old","old",1,1.374707
"1165",103,45,"word","new","new",1,2.029858
"1166",103,46,"word","new","new",1,6.865713
"1167",103,47,"word","new","new",1,1.951858
"1168",103,48,"word","new","new",1,1.490022
"1169",103,49,"word","old","old",1,1.711997
"1170",103,50,"word","new","old",0,1.078667
"1171",103,51,"word","new","new",1,1.608812
"1172",103,52,"word","old","new",0,2.451263
"1173",103,53,"word","old","old",1,2.138816
"1174",103,54,"word","old","new",0,1.514992
"1175",103,55,"word","old","new",0,2.248173
"1176",103,56,"word","old","old",1,1.172208
"1177",103,57,"word","old","old",1,1.37608
"1178",103,58,"word","new","new",1,2.045588
"1179",103,59,"word","new","new",1,1.374783
"1180",103,60,"word","old","new",0,1.780307
"1181",103,61,"word","old","new",0,1.681027
"1182",103,62,"word","old","old",1,1.177622
"1183",103,63,"word","new","old",0,2.779039
"1184",103,64,"word","old","old",1,0.962633
"1185",103,65,"word","old","old",1,1.640169
"1186",103,66,"word","new","old",0,1.189201
"1187",103,67,"word","new","new",1,1.513111
"1188",103,68,"word","new","new",1,1.577638
"1189",103,69,"word","new","new",1,1.557128
"1190",103,70,"word","new","new",1,1.448926
"1191",103,71,"word","old","old",1,1.79289
"1192",103,72,"word","old","old",1,1.265081
"1193",103,73,"word","old","old",1,1.073635
"1194",103,74,"word","old","old",1,0.942216
"1195",103,75,"word","old","old",1,0.965994
"1196",103,76,"word","new","new",1,1.673859
"1197",103,77,"word","new","new",1,2.622446
"1198",103,78,"word","new","new",1,1.312086
"1199",103,79,"word","old","old",1,1.484175
"1200",103,80,"word","new","new",1,3.402686
"1201",103,81,"word","old","new",0,1.70195
"1202",103,82,"word","new","new",1,1.499008
"1203",103,83,"word","new","new",1,1.677754
"1204",103,84,"word","old","new",0,3.114186
"1205",103,85,"word","new","new",1,1.406118
"1206",103,86,"word","new","new",1,4.369465
"1207",103,87,"word","old","old",1,1.624485
"1208",103,88,"word","new","new",1,4.151534
"1209",103,89,"word","new","old",0,2.233289
"1210",103,90,"word","new","new",1,1.499484
"1211",103,91,"word","old","old",1,1.039634
"1212",103,92,"word","old","old",1,1.398175
"1213",103,93,"word","old","old",1,1.203352
"1214",103,94,"word","old","old",1,1.094514
"1215",103,95,"word","new","new",1,1.733669
"1216",103,96,"word","new","new",1,1.277502
"1217",103,97,"word","new","new",1,1.269118
"1218",103,98,"word","new","old",0,1.484337
"1219",103,99,"word","old","old",1,1.671228
"1220",103,100,"word","old","old",1,1.078022
"1221",103,101,"word","new","new",1,5.649371
"1222",103,102,"word","old","old",1,1.375151
"1223",103,103,"word","new","new",1,6.631485
"1224",103,104,"word","new","old",0,2.888588
"1225",103,105,"word","new","new",1,5.38444
"1226",103,106,"word","new","new",1,1.812053
"1227",103,107,"word","old","old",1,1.702773
"1228",103,108,"word","new","new",1,2.34225
"1229",103,109,"word","old","new",0,1.422057
"1230",103,110,"word","new","new",1,3.824452
"1231",103,111,"word","new","new",1,1.203558
"1232",103,112,"word","old","old",1,1.171845
"1233",103,113,"pict","old","old",1,1.091277
"1234",103,114,"pict","old","old",1,1.641053
"1235",103,115,"pict","old","old",1,1.412046
"1236",103,116,"pict","old","old",1,1.176593
"1237",103,117,"pict","new","new",1,1.712261
"1238",103,118,"pict","old","old",1,10.516024
"1239",103,119,"pict","new","new",1,2.678615
"1240",103,120,"pict","old","old",1,1.826435
"1241",103,121,"pict","new","new",1,3.728085
"1242",103,122,"pict","old","old",1,1.341046
"1243",103,123,"pict","old","old",1,1.053929
"1244",103,124,"pict","old","old",1,1.205326
"1245",103,125,"pict","old","old",1,1.09418
"1246",103,126,"pict","new","new",1,1.380817
"1247",103,127,"pict","new","new",1,2.089302
"1248",103,128,"pict","new","new",1,1.509087
"1249",103,129,"pict","new","new",1,5.17966
"1250",103,130,"pict","new","new",1,1.289622
"1251",103,131,"pict","new","new",1,1.962361
"1252",103,132,"pict","new","new",1,1.09598
"1253",103,133,"pict","new","new",1,1.518702
"1254",103,134,"pict","old","old",1,1.938961
"1255",103,135,"pict","new","new",1,1.662431
"1256",103,136,"pict","new","new",1,2.648634
"1257",103,137,"pict","old","old",1,1.479759
"1258",103,138,"pict","new","new",1,1.299143
"1259",103,139,"pict","old","old",1,4.375944
"1260",103,140,"pict","old","old",1,1.086474
"1261",103,141,"pict","new","new",1,1.58905
"1262",103,142,"pict","new","old",0,1.160979
"1263",103,143,"pict","old","old",1,1.09501
"1264",103,144,"pict","new","old",0,1.097681
"1265",103,145,"pict","old","old",1,1.091152
"1266",103,146,"pict","new","new",1,1.401427
"1267",103,147,"pict","new","new",1,1.314069
"1268",103,148,"pict","new","new",1,1.850164
"1269",103,149,"pict","new","new",1,1.207293
"1270",103,150,"pict","new","new",1,1.312776
"1271",103,151,"pict","old","new",0,1.089391
"1272",103,152,"pict","new","new",1,2.212323
"1273",103,153,"pict","old","old",1,1.601546
"1274",103,154,"pict","old","old",1,1.095942
"1275",103,155,"pict","old","old",1,1.088503
"1276",103,156,"pict","new","new",1,1.398757
"1277",103,157,"pict","old","old",1,1.611637
"1278",103,158,"pict","old","old",1,1.76225
"1279",103,159,"pict","old","old",1,1.420931
"1280",103,160,"pict","new","new",1,4.132148
"1281",103,161,"pict","new","new",1,1.314647
"1282",103,162,"pict","new","new",1,1.196498
"1283",103,163,"pict","old","old",1,1.728691
"1284",103,164,"pict","old","old",1,1.198117
"1285",103,165,"pict","new","new",1,1.402573
"1286",103,166,"pict","new","new",1,1.519243
"1287",103,167,"pict","new","new",1,1.09349
"1288",103,168,"pict","old","old",1,1.504529
"1289",103,169,"pict","old","old",1,1.195285
"1290",103,170,"pict","new","new",1,1.717804
"1291",103,171,"pict","new","new",1,1.300876
"1292",103,172,"pict","old","old",1,1.818465
"1293",103,173,"pict","old","old",1,1.367
"1294",103,174,"pict","new","new",1,3.326047
"1295",103,175,"pict","new","new",1,1.413569
"1296",103,176,"pict","new","new",1,1.630347
"1297",103,177,"pict","old","new",0,1.201164
"1298",103,178,"pict","new","new",1,7.577541
"1299",103,179,"pict","old","old",1,1.94454
"1300",103,180,"pict","new","old",0,6.786686
"1301",103,181,"pict","new","new",1,2.366177
"1302",103,182,"pict","new","new",1,0.656149
"1303",103,183,"pict","old","old",1,1.811925
"1304",103,184,"pict","old","new",0,3.510333
"1305",103,185,"pict","old","old",1,1.70077
"1306",103,186,"pict","old","old",1,1.300531
"1307",103,187,"pict","old","old",1,1.850822
"1308",103,188,"pict","old","old",1,1.702165
"1309",103,189,"pict","old","old",1,1.092395
"1310",103,190,"pict","old","old",1,1.307389
"1311",103,191,"pict","new","new",1,1.822663
"1312",103,192,"pict","new","new",1,1.621774
"1313",103,193,"pict","old","old",1,3.635704
"1314",103,194,"pict","old","old",1,1.396399
"1315",103,195,"pict","new","old",0,1.598239
"1316",103,196,"pict","old","old",1,1.530589
"1317",103,197,"pict","old","old",1,1.305196
"1318",103,198,"pict","new","new",1,1.61339
"1319",103,199,"pict","old","old",1,1.512857
"1320",103,200,"pict","old","old",1,1.752049
"1321",103,201,"pict","old","old",1,9.322701
"1322",103,202,"pict","old","old",1,1.28661
"1323",103,203,"pict","old","old",1,1.312379
"1324",103,204,"pict","old","old",1,1.415609
"1325",103,205,"pict","new","new",1,1.618404
"1326",103,206,"pict","new","new",1,1.196547
"1327",103,207,"pict","new","new",1,2.070558
"1328",103,208,"pict","old","old",1,1.73191
"1329",103,209,"pict","new","new",1,1.932494
"1330",103,210,"pict","new","new",1,1.197732
"1331",103,211,"pict","new","new",1,1.748463
"1332",103,212,"pict","new","new",1,1.423742
"1333",103,213,"pict","new","new",1,1.97035
"1334",103,214,"pict","old","new",0,1.422933
"1335",103,215,"pict","old","new",0,3.595574
"1336",103,216,"pict","old","old",1,1.492631
"1337",103,217,"pict","old","old",1,1.638785
"1338",103,218,"pict","new","new",1,1.860492
"1339",103,219,"pict","new","new",1,1.586783
"1340",103,220,"pict","new","new",1,1.370222
"1341",103,221,"pict","new","new",1,1.159218
"1342",103,222,"pict","old","old",1,1.575071
"1343",103,223,"pict","new","new",1,1.5023
"1344",103,224,"pict","old","old",1,1.574685
"1345",104,1,"pict","new","new",1,3.26087
"1346",104,2,"pict","new","new",1,1.395898
"1347",104,3,"pict","old","old",1,2.02013
"1348",104,4,"pict","new","new",1,5.733422
"1349",104,5,"pict","old","old",1,1.581204
"1350",104,6,"pict","old","old",1,1.521485
"1351",104,7,"pict","old","old",1,1.961446
"1352",104,8,"pict","new","old",0,1.312022
"1353",104,9,"pict","old","old",1,1.09283
"1354",104,10,"pict","old","old",1,1.095711
"1355",104,11,"pict","new","new",1,1.734217
"1356",104,12,"pict","new","new",1,1.908399
"1357",104,13,"pict","new","new",1,1.90757
"1358",104,14,"pict","new","new",1,1.799466
"1359",104,15,"pict","new","new",1,1.840764
"1360",104,16,"pict","new","old",0,2.157707
"1361",104,17,"pict","new","new",1,1.71302
"1362",104,18,"pict","new","new",1,2.802228
"1363",104,19,"pict","new","new",1,1.412659
"1364",104,20,"pict","old","old",1,2.148923
"1365",104,21,"pict","old","old",1,1.195032
"1366",104,22,"pict","old","old",1,1.192696
"1367",104,23,"pict","old","new",0,1.829715
"1368",104,24,"pict","new","new",1,1.406382
"1369",104,25,"pict","new","new",1,1.423049
"1370",104,26,"pict","old","old",1,2.24755
"1371",104,27,"pict","new","old",0,1.742473
"1372",104,28,"pict","old","old",1,1.641847
"1373",104,29,"pict","new","new",1,2.24903
"1374",104,30,"pict","old","old",1,2.028489
"1375",104,31,"pict","old","old",1,1.888127
"1376",104,32,"pict","old","old",1,1.500557
"1377",104,33,"pict","new","new",1,2.017312
"1378",104,34,"pict","new","new",1,4.815035
"1379",104,35,"pict","old","new",0,2.617603
"1380",104,36,"pict","old","old",1,2.242667
"1381",104,37,"pict","new","new",1,2.125208
"1382",104,38,"pict","new","new",1,1.569533
"1383",104,39,"pict","old","new",0,1.280252
"1384",104,40,"pict","new","new",1,1.0793
"1385",104,41,"pict","old","old",1,1.807805
"1386",104,42,"pict","new","old",0,3.485297
"1387",104,43,"pict","old","old",1,2.018043
"1388",104,44,"pict","new","old",0,2.777187
"1389",104,45,"pict","new","new",1,2.156947
"1390",104,46,"pict","old","old",1,2.460483
"1391",104,47,"pict","new","new",1,1.386298
"1392",104,48,"pict","old","new",0,1.420889
"1393",104,49,"pict","old","old",1,1.619894
"1394",104,50,"pict","old","old",1,1.167968
"1395",104,51,"pict","old","old",1,1.306296
"1396",104,52,"pict","new","new",1,1.81503
"1397",104,53,"pict","old","old",1,2.017231
"1398",104,54,"pict","old","new",0,2.422236
"1399",104,55,"pict","new","new",1,1.490906
"1400",104,56,"pict","old","new",0,1.312583
"1401",104,57,"pict","new","new",1,4.148317
"1402",104,58,"pict","new","new",1,1.418148
"1403",104,59,"pict","old","new",0,1.632078
"1404",104,60,"pict","new","new",1,1.312156
"1405",104,61,"pict","old","old",1,2.0443
"1406",104,62,"pict","new","new",1,1.586488
"1407",104,63,"pict","new","new",1,1.492445
"1408",104,64,"pict","new","new",1,1.092267
"1409",104,65,"pict","old","new",0,1.205811
"1410",104,66,"pict","old","new",0,0.870267
"1411",104,67,"pict","old","new",0,2.335672
"1412",104,68,"pict","old","new",0,1.798295
"1413",104,69,"pict","old","old",1,1.819248
"1414",104,70,"pict","new","new",1,3.335371
"1415",104,71,"pict","new","new",1,2.22454
"1416",104,72,"pict","new","new",1,1.400457
"1417",104,73,"pict","new","new",1,1.089098
"1418",104,74,"pict","old","new",0,1.197021
"1419",104,75,"pict","old","new",0,1.414126
"1420",104,76,"pict","new","new",1,3.457566
"1421",104,77,"pict","new","new",1,1.303734
"1422",104,78,"pict","old","new",0,3.108344
"1423",104,79,"pict","old","new",0,1.485544
"1424",104,80,"pict","old","new",0,1.085485
"1425",104,81,"pict","old","new",0,3.846335
"1426",104,82,"pict","new","new",1,2.177297
"1427",104,83,"pict","old","old",1,2.468945
"1428",104,84,"pict","old","old",1,1.313812
"1429",104,85,"pict","old","new",0,11.412772
"1430",104,86,"pict","old","new",0,0.65347
"1431",104,87,"pict","old","new",0,4.126355
"1432",104,88,"pict","new","new",1,1.41228
"1433",104,89,"pict","new","new",1,1.629366
"1434",104,90,"pict","old","old",1,2.035014
"1435",104,91,"pict","old","new",0,1.814011
"1436",104,92,"pict","new","new",1,2.123933
"1437",104,93,"pict","new","new",1,2.048974
"1438",104,94,"pict","new","new",1,1.521236
"1439",104,95,"pict","old","new",0,2.596015
"1440",104,96,"pict","old","old",1,2.433502
"1441",104,97,"pict","new","new",1,1.812965
"1442",104,98,"pict","new","new",1,1.675967
"1443",104,99,"pict","new","new",1,1.302101
"1444",104,100,"pict","new","new",1,1.082943
"1445",104,101,"pict","new","new",1,1.176057
"1446",104,102,"pict","new","new",1,2.932629
"1447",104,103,"pict","old","old",1,2.768513
"1448",104,104,"pict","old","old",1,12.0964
"1449",104,105,"pict","old","old",1,1.533266
"1450",104,106,"pict","new","new",1,1.73491
"1451",104,107,"pict","old","new",0,1.487603
"1452",104,108,"pict","new","new",1,1.409114
"1453",104,109,"pict","new","new",1,1.302811
"1454",104,110,"pict","old","old",1,3.657225
"1455",104,111,"pict","old","old",1,3.965792
"1456",104,112,"pict","new","new",1,2.018175
"1457",104,113,"word","old","new",0,4.269522
"1458",104,114,"word","new","new",1,1.503119
"1459",104,115,"word","old","old",1,1.833401
"1460",104,116,"word","new","new",1,2.99612
"1461",104,117,"word","old","old",1,2.170005
"1462",104,118,"word","new","new",1,1.811708
"1463",104,119,"word","old","new",0,3.830683
"1464",104,120,"word","new","old",0,4.707072
"1465",104,121,"word","new","new",1,2.170201
"1466",104,122,"word","new","new",1,2.280098
"1467",104,123,"word","old","new",0,10.43828
"1468",104,124,"word","new","new",1,1.733351
"1469",104,125,"word","new","old",0,2.591605
"1470",104,126,"word","new","new",1,4.526295
"1471",104,127,"word","old","old",1,17.177504
"1472",104,128,"word","old","old",1,1.530222
"1473",104,129,"word","new","new",1,2.544977
"1474",104,130,"word","old","old",1,2.045843
"1475",104,131,"word","old","new",0,1.71764
"1476",104,132,"word","old","old",1,2.108078
"1477",104,133,"word","old","new",0,2.373406
"1478",104,134,"word","new","old",0,2.014853
"1479",104,135,"word","new","new",1,5.290416
"1480",104,136,"word","new","new",1,1.40668
"1481",104,137,"word","old","old",1,2.139225
"1482",104,138,"word","new","new",1,2.364345
"1483",104,139,"word","new","old",0,3.309873
"1484",104,140,"word","new","new",1,3.871184
"1485",104,141,"word","old","new",0,1.858894
"1486",104,142,"word","new","new",1,3.605934
"1487",104,143,"word","old","old",1,2.389259
"1488",104,144,"word","old","old",1,17.037048
"1489",104,145,"word","new","old",0,0.876267
"1490",104,146,"word","old","old",1,2.3582
"1491",104,147,"word","old","new",0,1.890138
"1492",104,148,"word","old","old",1,2.124354
"1493",104,149,"word","new","new",1,1.811889
"1494",104,150,"word","old","old",1,2.810299
"1495",104,151,"word","old","old",1,1.296569
"1496",104,152,"word","old","old",1,1.312677
"1497",104,153,"word","new","old",0,1.749379
"1498",104,154,"word","old","old",1,1.312756
"1499",104,155,"word","old","new",0,3.433469
"1500",104,156,"word","old","new",0,2.264387
"1501",104,157,"word","new","old",0,2.918598
"1502",104,158,"word","new","new",1,2.264446
"1503",104,159,"word","new","new",1,2.669546
"1504",104,160,"word","new","new",1,2.467383
"1505",104,161,"word","new","old",0,2.482981
"1506",104,162,"word","old","old",1,2.108552
"1507",104,163,"word","new","old",0,1.827647
"1508",104,164,"word","old","old",1,1.203668
"1509",104,165,"word","old","new",0,2.919793
"1510",104,166,"word","old","old",1,3.231871
"1511",104,167,"word","old","new",0,2.326904
"1512",104,168,"word","old","old",1,2.015101
"1513",104,169,"word","new","new",1,2.26426
"1514",104,170,"word","old","old",1,3.27865
"1515",104,171,"word","new","new",1,2.576704
"1516",104,172,"word","old","old",1,1.890214
"1517",104,173,"word","old","old",1,1.843375
"1518",104,174,"word","new","old",0,1.297376
"1519",104,175,"word","new","new",1,2.170802
"1520",104,176,"word","new","new",1,1.29812
"1521",104,177,"word","old","old",1,2.46697
"1522",104,178,"word","new","new",1,1.796433
"1523",104,179,"word","old","old",1,2.452058
"1524",104,180,"word","old","old",1,1.749714
"1525",104,181,"word","new","new",1,1.515925
"1526",104,182,"word","new","new",1,1.9371
"1527",104,183,"word","old","old",1,1.936862
"1528",104,184,"word","old","new",0,1.265993
"1529",104,185,"word","new","new",1,1.531351
"1530",104,186,"word","new","new",1,0.970071
"1531",104,187,"word","new","new",1,0.98544
"1532",104,188,"word","new","new",1,0.439142
"1533",104,189,"word","new","new",1,2.004567
"1534",104,190,"word","new","new",1,1.468943
"1535",104,191,"word","old","old",1,1.600682
"1536",104,192,"word","old","old",1,1.618392
"1537",104,193,"word","new","old",0,1.515728
"1538",104,194,"word","old","old",1,1.313069
"1539",104,195,"word","new","old",0,2.187004
"1540",104,196,"word","new","new",1,1.827861
"1541",104,197,"word","old","old",1,2.451982
"1542",104,198,"word","new","new",1,1.375217
"1543",104,199,"word","old","old",1,2.006602
"1544",104,200,"word","new","old",0,1.493486
"1545",104,201,"word","old","new",0,1.936418
"1546",104,202,"word","new","old",0,1.500236
"1547",104,203,"word","old","new",0,2.155447
"1548",104,204,"word","new","old",0,1.999479
"1549",104,205,"word","new","new",1,11.234223
"1550",104,206,"word","new","new",1,0.545725
"1551",104,207,"word","old","new",0,2.521698
"1552",104,208,"word","new","old",0,1.687799
"1553",104,209,"word","new","new",1,19.018453
"1554",104,210,"word","old","old",1,1.92114
"1555",104,211,"word","old","old",1,1.406944
"1556",104,212,"word","old","old",1,1.312958
"1557",104,213,"word","old","new",0,2.030568
"1558",104,214,"word","old","old",1,1.828157
"1559",104,215,"word","new","new",1,2.374044
"1560",104,216,"word","old","old",1,1.609647
"1561",104,217,"word","old","old",1,1.531663
"1562",104,218,"word","old","old",1,2.499503
"1563",104,219,"word","new","new",1,2.014744
"1564",104,220,"word","new","new",1,2.062026
"1565",104,221,"word","old","new",0,1.203868
"1566",104,222,"word","old","old",1,2.474317
"1567",104,223,"word","new","new",1,2.445257
"1568",104,224,"word","new","new",1,1.31313
"1569",105,1,"word","old","old",1,1.906895
"1570",105,2,"word","new","new",1,1.802172
"1571",105,3,"word","old","old",1,1.38304
"1572",105,4,"word","old","new",0,1.717735
"1573",105,5,"word","old","old",1,2.32482
"1574",105,6,"word","old","old",1,1.093332
"1575",105,7,"word","old","new",0,1.375042
"1576",105,8,"word","old","new",0,1.484013
"1577",105,9,"word","new","new",1,1.093843
"1578",105,10,"word","old","old",1,1.608141
"1579",105,11,"word","old","new",0,1.497343
"1580",105,12,"word","old","old",1,1.483669
"1581",105,13,"word","new","new",1,1.514767
"1582",105,14,"word","new","new",1,1.405186
"1583",105,15,"word","old","old",1,1.365515
"1584",105,16,"word","old","old",1,1.306027
"1585",105,17,"word","new","new",1,1.484336
"1586",105,18,"word","new","new",1,1.608989
"1587",105,19,"word","new","new",1,1.18799
"1588",105,20,"word","new","new",1,1.203537
"1589",105,21,"word","old","old",1,1.359326
"1590",105,22,"word","new","new",1,1.608627
"1591",105,23,"word","old","new",0,1.39061
"1592",105,24,"word","old","new",0,1.421088
"1593",105,25,"word","old","new",0,1.96778
"1594",105,26,"word","old","old",1,1.484134
"1595",105,27,"word","old","old",1,0.960105
"1596",105,28,"word","new","new",1,1.384496
"1597",105,29,"word","old","new",0,1.187568
"1598",105,30,"word","new","new",1,1.203087
"1599",105,31,"word","old","old",1,1.375271
"1600",105,32,"word","new","old",0,1.187601
"1601",105,33,"word","new","new",1,1.374605
"1602",105,34,"word","old","old",1,1.824199
"1603",105,35,"word","old","old",1,3.40515
"1604",105,36,"word","new","new",1,1.499354
"1605",105,37,"word","old","old",1,1.599561
"1606",105,38,"word","old","new",0,2.022894
"1607",105,39,"word","old","old",1,1.281236
"1608",105,40,"word","old","old",1,0.98485
"1609",105,41,"word","new","old",0,1.31224
"1610",105,42,"word","old","new",0,1.374669
"1611",105,43,"word","new","new",1,1.187822
"1612",105,44,"word","old","old",1,1.506947
"1613",105,45,"word","new","old",0,1.478416
"1614",105,46,"word","old","new",0,2.839302
"1615",105,47,"word","old","old",1,1.79621
"1616",105,48,"word","new","new",1,1.484195
"1617",105,49,"word","old","old",1,1.187161
"1618",105,50,"word","new","new",1,1.40584
"1619",105,51,"word","old","old",1,1.496999
"1620",105,52,"word","old","old",1,1.09095
"1621",105,53,"word","new","new",1,1.272027
"1622",105,54,"word","old","old",1,1.693765
"1623",105,55,"word","new","old",0,1.197028
"1624",105,56,"word","old","old",1,1.920526
"1625",105,57,"word","new","old",0,1.078659
"1626",105,58,"word","old","old",1,1.09388
"1627",105,59,"word","new","old",0,2.950741
"1628",105,60,"word","old","old",1,1.600061
"1629",105,61,"word","new","new",1,2.241466
"1630",105,62,"word","new","new",1,1.468341
"1631",105,63,"word","new","new",1,1.390099
"1632",105,64,"word","new","new",1,1.171969
"1633",105,65,"word","new","new",1,1.406577
"1634",105,66,"word","old","old",1,1.709835
"1635",105,67,"word","new","new",1,2.241515
"1636",105,68,"word","new","old",0,1.709421
"1637",105,69,"word","new","new",1,1.493287
"1638",105,70,"word","old","new",0,1.203307
"1639",105,71,"word","new","new",1,1.187931
"1640",105,72,"word","new","new",1,1.3129
"1641",105,73,"word","old","old",1,1.827724
"1642",105,74,"word","new","new",1,1.359699
"1643",105,75,"word","new","new",1,1.712365
"1644",105,76,"word","old","old",1,1.161504
"1645",105,77,"word","new","new",1,1.499985
"1646",105,78,"word","new","new",1,1.500147
"1647",105,79,"word","new","new",1,2.701219
"1648",105,80,"word","new","new",1,1.185523
"1649",105,81,"word","new","new",1,0.641665
"1650",105,82,"word","new","new",1,1.188196
"1651",105,83,"word","new","new",1,1.094238
"1652",105,84,"word","old","new",0,0.986157
"1653",105,85,"word","new","new",1,1.094309
"1654",105,86,"word","old","old",1,1.624568
"1655",105,87,"word","new","old",0,1.530998
"1656",105,88,"word","new","old",0,1.203498
"1657",105,89,"word","old","old",1,1.702693
"1658",105,90,"word","new","new",1,1.593354
"1659",105,91,"word","new","new",1,0.657341
"1660",105,92,"word","old","old",1,1.594371
"1661",105,93,"word","new","old",0,1.093225
"1662",105,94,"word","old","old",1,1.094483
"1663",105,95,"word","old","old",1,1.405273
"1664",105,96,"word","new","new",1,1.70306
"1665",105,97,"word","new","old",0,1.687435
"1666",105,98,"word","old","old",1,1.593863
"1667",105,99,"word","old","new",0,1.702567
"1668",105,100,"word","new","old",0,2.014463
"1669",105,101,"word","new","new",1,3.871692
"1670",105,102,"word","old","old",1,1.701207
"1671",105,103,"word","old","old",1,0.985631
"1672",105,104,"word","new","new",1,1.594724
"1673",105,105,"word","old","old",1,1.717505
"1674",105,106,"word","old","new",0,1.92066
"1675",105,107,"word","new","new",1,1.203534
"1676",105,108,"word","new","old",0,1.82808
"1677",105,109,"word","old","new",0,1.281383
"1678",105,110,"word","old","new",0,1.725501
"1679",105,111,"word","new","new",1,1.289522
"1680",105,112,"word","old","old",1,2.904314
"1681",105,113,"pict","new","new",1,2.535226
"1682",105,114,"pict","old","old",1,1.492895
"1683",105,115,"pict","new","new",1,1.711101
"1684",105,116,"pict","old","old",1,1.570969
"1685",105,117,"pict","old","old",1,1.083873
"1686",105,118,"pict","new","new",1,1.82763
"1687",105,119,"pict","new","new",1,1.628645
"1688",105,120,"pict","new","new",1,1.195481
"1689",105,121,"pict","old","new",0,2.483568
"1690",105,122,"pict","old","old",1,1.393337
"1691",105,123,"pict","new","new",1,1.590061
"1692",105,124,"pict","old","old",1,1.466148
"1693",105,125,"pict","old","old",1,1.311598
"1694",105,126,"pict","new","new",1,1.488695
"1695",105,127,"pict","old","new",0,1.920075
"1696",105,128,"pict","old","old",1,1.467188
"1697",105,129,"pict","new","new",1,1.585445
"1698",105,130,"pict","old","old",1,1.36517
"1699",105,131,"pict","new","new",1,1.576807
"1700",105,132,"pict","new","old",0,1.679708
"1701",105,133,"pict","new","new",1,2.190632
"1702",105,134,"pict","old","new",0,1.607082
"1703",105,135,"pict","new","new",1,1.50441
"1704",105,136,"pict","new","new",1,1.306035
"1705",105,137,"pict","new","new",1,1.854503
"1706",105,138,"pict","old","old",1,2.131877
"1707",105,139,"pict","new","new",1,1.596963
"1708",105,140,"pict","old","old",1,1.624911
"1709",105,141,"pict","new","new",1,1.379172
"1710",105,142,"pict","new","new",1,1.287967
"1711",105,143,"pict","old","new",0,1.730342
"1712",105,144,"pict","new","new",1,1.095085
"1713",105,145,"pict","new","new",1,1.197971
"1714",105,146,"pict","new","old",0,1.809857
"1715",105,147,"pict","old","old",1,1.197859
"1716",105,148,"pict","old","old",1,1.313896
"1717",105,149,"pict","old","old",1,1.185406
"1718",105,150,"pict","old","old",1,1.206458
"1719",105,151,"pict","new","new",1,2.257707
"1720",105,152,"pict","new","new",1,1.585089
"1721",105,153,"pict","old","new",0,3.236679
"1722",105,154,"pict","old","new",0,1.200666
"1723",105,155,"pict","new","new",1,1.530584
"1724",105,156,"pict","old","old",1,1.403667
"1725",105,157,"pict","old","old",1,1.088229
"1726",105,158,"pict","new","new",1,1.71553
"1727",105,159,"pict","old","old",1,2.151946
"1728",105,160,"pict","new","old",0,1.08231
"1729",105,161,"pict","old","old",1,1.900761
"1730",105,162,"pict","new","new",1,2.199292
"1731",105,163,"pict","old","new",0,1.41513
"1732",105,164,"pict","new","new",1,1.681659
"1733",105,165,"pict","new","new",1,1.055125
"1734",105,166,"pict","new","new",1,1.522374
"1735",105,167,"pict","old","new",0,1.293966
"1736",105,168,"pict","new","new",1,1.198376
"1737",105,169,"pict","new","new",1,1.096974
"1738",105,170,"pict","new","new",1,1.078959
"1739",105,171,"pict","new","new",1,1.09293
"1740",105,172,"pict","new","new",1,1.0855
"1741",105,173,"pict","new","new",1,1.407224
"1742",105,174,"pict","new","new",1,1.092403
"1743",105,175,"pict","old","old",1,1.517111
"1744",105,176,"pict","new","new",1,1.395288
"1745",105,177,"pict","old","old",1,1.715643
"1746",105,178,"pict","old","old",1,1.279961
"1747",105,179,"pict","old","old",1,1.709368
"1748",105,180,"pict","new","old",0,1.08373
"1749",105,181,"pict","new","new",1,1.821042
"1750",105,182,"pict","old","old",1,1.459213
"1751",105,183,"pict","new","new",1,2.39118
"1752",105,184,"pict","old","old",1,2.462054
"1753",105,185,"pict","new","new",1,2.150729
"1754",105,186,"pict","old","new",0,2.009338
"1755",105,187,"pict","new","new",1,1.161353
"1756",105,188,"pict","old","old",1,1.294297
"1757",105,189,"pict","old","old",1,0.974824
"1758",105,190,"pict","new","new",1,1.495837
"1759",105,191,"pict","new","old",0,1.784685
"1760",105,192,"pict","new","new",1,1.260378
"1761",105,193,"pict","new","new",1,0.630978
"1762",105,194,"pict","old","old",1,1.600778
"1763",105,195,"pict","new","new",1,1.80221
"1764",105,196,"pict","old","old",1,1.406114
"1765",105,197,"pict","new","new",1,1.619955
"1766",105,198,"pict","old","old",1,1.726923
"1767",105,199,"pict","old","new",0,1.611322
"1768",105,200,"pict","old","old",1,2.464891
"1769",105,201,"pict","new","new",1,1.406799
"1770",105,202,"pict","new","new",1,1.083627
"1771",105,203,"pict","old","new",0,1.183042
"1772",105,204,"pict","old","new",0,1.089163
"1773",105,205,"pict","old","new",0,1.929741
"1774",105,206,"pict","old","old",1,1.602934
"1775",105,207,"pict","old","new",0,1.269572
"1776",105,208,"pict","old","new",0,1.195712
"1777",105,209,"pict","old","new",0,1.167209
"1778",105,210,"pict","old","new",0,1.206145
"1779",105,211,"pict","new","new",1,0.987277
"1780",105,212,"pict","old","new",0,1.749378
"1781",105,213,"pict","new","new",1,1.307813
"1782",105,214,"pict","old","old",1,1.827314
"1783",105,215,"pict","old","old",1,2.130626
"1784",105,216,"pict","new","new",1,1.605873
"1785",105,217,"pict","old","old",1,1.933304
"1786",105,218,"pict","old","old",1,1.898646
"1787",105,219,"pict","old","new",0,1.719356
"1788",105,220,"pict","old","new",0,1.269796
"1789",105,221,"pict","new","new",1,1.700528
"1790",105,222,"pict","new","new",1,1.307157
"1791",105,223,"pict","old","new",0,1.20482
"1792",105,224,"pict","new","new",1,1.292114
"1793",106,1,"pict","new","new",1,2.480232
"1794",106,2,"pict","old","old",1,3.649022
"1795",106,3,"pict","old","old",1,1.521162
"1796",106,4,"pict","old","old",1,1.094094
"1797",106,5,"pict","new","new",1,1.826047
"1798",106,6,"pict","new","new",1,1.187126
"1799",106,7,"pict","old","new",0,2.176489
"1800",106,8,"pict","new","old",0,2.023539
"1801",106,9,"pict","new","new",1,1.601119
"1802",106,10,"pict","new","new",1,1.096948
"1803",106,11,"pict","new","new",1,1.178408
"1804",106,12,"pict","old","new",0,0.972611
"1805",106,13,"pict","old","old",1,1.620054
"1806",106,14,"pict","old","new",0,1.606344
"1807",106,15,"pict","old","old",1,1.507869
"1808",106,16,"pict","new","new",1,2.118635
"1809",106,17,"pict","new","new",1,1.096732
"1810",106,18,"pict","new","new",1,0.985994
"1811",106,19,"pict","new","new",1,2.076641
"1812",106,20,"pict","new","new",1,1.747985
"1813",106,21,"pict","old","old",1,1.626251
"1814",106,22,"pict","new","old",0,1.205311
"1815",106,23,"pict","old","old",1,1.198167
"1816",106,24,"pict","old","old",1,1.088302
"1817",106,25,"pict","old","old",1,1.091305
"1818",106,26,"pict","new","new",1,1.491469
"1819",106,27,"pict","new","new",1,1.191546
"1820",106,28,"pict","new","new",1,2.165894
"1821",106,29,"pict","new","new",1,1.204784
"1822",106,30,"pict","old","old",1,1.701525
"1823",106,31,"pict","new","new",1,1.599597
"1824",106,32,"pict","new","new",1,1.296934
"1825",106,33,"pict","old","old",1,2.1516
"1826",106,34,"pict","new","new",1,1.261879
"1827",106,35,"pict","old","old",1,1.391151
"1828",106,36,"pict","old","old",1,1.093374
"1829",106,37,"pict","new","new",1,1.621721
"1830",106,38,"pict","new","new",1,3.157875
"1831",106,39,"pict","new","new",1,1.197548
"1832",106,40,"pict","old","old",1,2.131368
"1833",106,41,"pict","new","new",1,1.711743
"1834",106,42,"pict","old","new",0,1.484221
"1835",106,43,"pict","new","new",1,1.28147
"1836",106,44,"pict","new","new",1,1.423639
"1837",106,45,"pict","old","old",1,2.25619
"1838",106,46,"pict","new","new",1,1.712363
"1839",106,47,"pict","old","old",1,1.406613
"1840",106,48,"pict","new","new",1,2.01428
"1841",106,49,"pict","old","old",1,1.61777
"1842",106,50,"pict","new","new",1,1.571368
"1843",106,51,"pict","new","new",1,1.194195
"1844",106,52,"pict","old","old",1,1.681372
"1845",106,53,"pict","old","old",1,1.078167
"1846",106,54,"pict","new","new",1,1.716104
"1847",106,55,"pict","new","new",1,2.21149
"1848",106,56,"pict","old","new",0,1.822348
"1849",106,57,"pict","old","new",0,1.419927
"1850",106,58,"pict","new","new",1,0.986447
"1851",106,59,"pict","new","new",1,1.08669
"1852",106,60,"pict","old","old",1,1.482034
"1853",106,61,"pict","new","new",1,1.506126
"1854",106,62,"pict","new","new",1,0.986344
"1855",106,63,"pict","old","new",0,1.52419
"1856",106,64,"pict","old","old",1,1.714507
"1857",106,65,"pict","new","new",1,1.475832
"1858",106,66,"pict","new","new",1,1.202023
"1859",106,67,"pict","new","new",1,1.185266
"1860",106,68,"pict","new","new",1,1.418108
"1861",106,69,"pict","old","new",0,1.19242
"1862",106,70,"pict","new","new",1,0.982518
"1863",106,71,"pict","old","old",1,1.586267
"1864",106,72,"pict","old","old",1,2.651125
"1865",106,73,"pict","old","old",1,2.386395
"1866",106,74,"pict","new","new",1,1.925509
"1867",106,75,"pict","old","old",1,1.494873
"1868",106,76,"pict","old","new",0,1.917759
"1869",106,77,"pict","old","old",1,1.795613
"1870",106,78,"pict","new","new",1,1.819816
"1871",106,79,"pict","old","old",1,1.613546
"1872",106,80,"pict","old","new",0,1.582085
"1873",106,81,"pict","old","old",1,1.689603
"1874",106,82,"pict","new","new",1,1.401551
"1875",106,83,"pict","old","old",1,2.105264
"1876",106,84,"pict","new","new",1,1.705565
"1877",106,85,"pict","old","new",0,1.394272
"1878",106,86,"pict","new","new",1,1.092339
"1879",106,87,"pict","old","old",1,1.808299
"1880",106,88,"pict","old","new",0,1.367712
"1881",106,89,"pict","old","new",0,1.595694
"1882",106,90,"pict","old","old",1,1.392401
"1883",106,91,"pict","old","old",1,1.621005
"1884",106,92,"pict","old","old",1,1.527592
"1885",106,93,"pict","old","old",1,1.189406
"1886",106,94,"pict","new","new",1,1.94665
"1887",106,95,"pict","new","new",1,1.58379
"1888",106,96,"pict","old","old",1,1.71734
"1889",106,97,"pict","new","new",1,2.025925
"1890",106,98,"pict","old","old",1,1.47634
"1891",106,99,"pict","old","old",1,1.08476
"1892",106,100,"pict","old","old",1,1.205339
"1893",106,101,"pict","new","new",1,1.814984
"1894",106,102,"pict","new","new",1,1.191239
"1895",106,103,"pict","old","old",1,1.704721
"1896",106,104,"pict","old","old",1,1.094507
"1897",106,105,"pict","new","new",1,1.826022
"1898",106,106,"pict","new","new",1,1.202395
"1899",106,107,"pict","old","old",1,1.61652
"1900",106,108,"pict","new","new",1,1.575296
"1901",106,109,"pict","new","new",1,1.193408
"1902",106,110,"pict","old","old",1,2.598639
"1903",106,111,"pict","new","new",1,1.090773
"1904",106,112,"pict","old","old",1,2.60786
"1905",106,113,"word","new","new",1,2.351206
"1906",106,114,"word","old","old",1,2.133045
"1907",106,115,"word","old","old",1,1.091588
"1908",106,116,"word","new","new",1,1.624033
"1909",106,117,"word","old","new",0,1.070216
"1910",106,118,"word","old","old",1,1.490678
"1911",106,119,"word","old","old",1,1.093823
"1912",106,120,"word","old","new",0,1.701964
"1913",106,121,"word","new","new",1,1.281126
"1914",106,122,"word","new","new",1,1.092733
"1915",106,123,"word","new","new",1,1.20318
"1916",106,124,"word","old","old",1,2.044933
"1917",106,125,"word","old","old",1,1.093597
"1918",106,126,"word","old","old",1,1.093826
"1919",106,127,"word","old","old",1,1.312309
"1920",106,128,"word","new","old",0,1.312257
"1921",106,129,"word","new","new",1,1.389754
"1922",106,130,"word","new","new",1,1.195712
"1923",106,131,"word","new","new",1,1.303415
"1924",106,132,"word","old","new",0,1.733506
"1925",106,133,"word","new","new",1,1.094015
"1926",106,134,"word","old","new",0,1.202988
"1927",106,135,"word","old","old",1,1.608625
"1928",106,136,"word","new","new",1,1.623434
"1929",106,137,"word","old","old",1,1.515035
"1930",106,138,"word","old","old",1,1.094187
"1931",106,139,"word","old","new",0,1.70239
"1932",106,140,"word","old","old",1,1.56206
"1933",106,141,"word","old","new",0,1.593113
"1934",106,142,"word","new","new",1,1.280998
"1935",106,143,"word","new","new",1,1.218458
"1936",106,144,"word","new","new",1,1.094006
"1937",106,145,"word","new","new",1,1.094035
"1938",106,146,"word","old","old",1,1.624229
"1939",106,147,"word","new","new",1,1.624463
"1940",106,148,"word","old","new",0,1.093889
"1941",106,149,"word","new","new",1,1.202953
"1942",106,150,"word","new","new",1,1.109798
"1943",106,151,"word","old","new",0,1.530438
"1944",106,152,"word","new","new",1,1.078582
"1945",106,153,"word","new","new",1,1.40596
"1946",106,154,"word","old","old",1,1.53075
"1947",106,155,"word","new","new",1,1.499503
"1948",106,156,"word","old","old",1,1.624245
"1949",106,157,"word","old","old",1,1.187389
"1950",106,158,"word","old","old",1,1.093785
"1951",106,159,"word","old","old",1,1.093702
"1952",106,160,"word","old","old",1,1.749307
"1953",106,161,"word","old","old",1,1.203089
"1954",106,162,"word","old","old",1,1.312721
"1955",106,163,"word","old","new",0,2.560718
"1956",106,164,"word","new","new",1,1.202154
"1957",106,165,"word","old","new",0,1.312509
"1958",106,166,"word","new","new",1,1.312501
"1959",106,167,"word","new","new",1,1.078658
"1960",106,168,"word","old","old",1,1.920628
"1961",106,169,"word","new","new",1,1.624459
"1962",106,170,"word","old","old",1,1.702612
"1963",106,171,"word","new","new",1,1.826853
"1964",106,172,"word","old","old",1,1.608865
"1965",106,173,"word","new","new",1,1.9831
"1966",106,174,"word","old","new",0,1.374891
"1967",106,175,"word","old","new",0,1.312428
"1968",106,176,"word","new","new",1,1.125341
"1969",106,177,"word","old","new",0,1.64021
"1970",106,178,"word","new","new",1,1.421609
"1971",106,179,"word","new","new",1,1.312199
"1972",106,180,"word","new","new",1,1.203227
"1973",106,181,"word","old","new",0,1.203286
"1974",106,182,"word","old","new",0,1.530351
"1975",106,183,"word","new","new",1,1.20293
"1976",106,184,"word","old","old",1,1.624476
"1977",106,185,"word","new","new",1,1.374916
"1978",106,186,"word","old","new",0,1.093715
"1979",106,187,"word","new","new",1,1.187795
"1980",106,188,"word","old","old",1,1.702738
"1981",106,189,"word","new","new",1,1.078543
"1982",106,190,"word","new","new",1,1.094069
"1983",106,191,"word","new","new",1,1.094282
"1984",106,192,"word","new","new",1,1.094305
"1985",106,193,"word","old","old",1,2.045831
"1986",106,194,"word","new","new",1,1.599859
"1987",106,195,"word","old","old",1,1.936653
"1988",106,196,"word","new","new",1,1.499497
"1989",106,197,"word","new","new",1,1.749329
"1990",106,198,"word","new","new",1,1.094266
"1991",106,199,"word","old","new",0,1.203279
"1992",106,200,"word","new","new",1,1.967764
"1993",106,201,"word","new","new",1,1.196652
"1994",106,202,"word","new","new",1,1.521853
"1995",106,203,"word","new","new",1,1.094091
"1996",106,204,"word","old","old",1,2.045881
"1997",106,205,"word","new","new",1,1.609065
"1998",106,206,"word","new","new",1,1.203692
"1999",106,207,"word","new","new",1,1.094225
"2000",106,208,"word","old","new",0,1.19461
"2001",106,209,"word","new","new",1,1.1967
"2002",106,210,"word","old","old",1,1.827832
"2003",106,211,"word","new","new",1,1.171988
"2004",106,212,"word","new","new",1,1.094378
"2005",106,213,"word","old","new",0,0.977543
"2006",106,214,"word","old","old",1,1.522678
"2007",106,215,"word","new","new",1,1.796235
"2008",106,216,"word","old","old",1,1.59348
"2009",106,217,"word","old","old",1,1.312644
"2010",106,218,"word","old","old",1,1.187903
"2011",106,219,"word","new","new",1,1.608918
"2012",106,220,"word","old","old",1,1.702777
"2013",106,221,"word","old","old",1,1.889532
"2014",106,222,"word","new","new",1,1.678626
"2015",106,223,"word","old","new",0,1.625435
"2016",106,224,"word","new","new",1,1.070068
"2017",107,1,"word","old","old",1,2.454221
"2018",107,2,"word","new","old",0,0.100716
"2019",107,3,"word","new","new",1,0.101563
"2020",107,4,"word","new","old",0,0.105254
"2021",107,5,"word","new","old",0,0.101012
"2022",107,6,"word","old","old",1,0.100785
"2023",107,7,"word","new","new",1,0.107614
"2024",107,8,"word","new","old",0,0.660105
"2025",107,9,"word","new","new",1,4.619895
"2026",107,10,"word","old","old",1,1.568567
"2027",107,11,"word","old","new",0,2.747061
"2028",107,12,"word","new","new",1,2.022188
"2029",107,13,"word","old","old",1,1.460287
"2030",107,14,"word","new","new",1,1.273136
"2031",107,15,"word","new","new",1,1.461027
"2032",107,16,"word","new","new",1,1.396906
"2033",107,17,"word","new","new",1,1.691097
"2034",107,18,"word","new","new",1,1.255708
"2035",107,19,"word","new","new",1,1.308747
"2036",107,20,"word","new","new",1,1.159282
"2037",107,21,"word","new","new",1,1.510061
"2038",107,22,"word","old","old",1,1.489899
"2039",107,23,"word","old","old",1,1.077338
"2040",107,24,"word","old","old",1,1.499212
"2041",107,25,"word","new","new",1,1.510038
"2042",107,26,"word","new","new",1,1.266257
"2043",107,27,"word","old","old",1,1.239046
"2044",107,28,"word","new","new",1,1.494338
"2045",107,29,"word","new","new",1,2.372499
"2046",107,30,"word","old","old",1,1.257192
"2047",107,31,"word","new","new",1,1.39032
"2048",107,32,"word","new","new",1,2.310569
"2049",107,33,"word","old","old",1,1.156804
"2050",107,34,"word","new","new",1,1.184472
"2051",107,35,"word","new","new",1,1.081532
"2052",107,36,"word","old","old",1,1.466507
"2053",107,37,"word","old","new",0,2.032382
"2054",107,38,"word","old","old",1,1.156897
"2055",107,39,"word","old","old",1,1.078943
"2056",107,40,"word","new","new",1,1.296816
"2057",107,41,"word","new","new",1,2.014088
"2058",107,42,"word","new","new",1,1.156382
"2059",107,43,"word","new","new",1,2.338598
"2060",107,44,"word","new","new",1,3.187792
"2061",107,45,"word","new","new",1,1.07775
"2062",107,46,"word","old","old",1,1.26591
"2063",107,47,"word","new","new",1,1.187942
"2064",107,48,"word","old","old",1,1.17154
"2065",107,49,"word","old","old",1,1.078446
"2066",107,50,"word","new","new",1,1.156422
"2067",107,51,"word","old","old",1,1.26592
"2068",107,52,"word","old","old",1,1.156886
"2069",107,53,"word","new","new",1,1.169817
"2070",107,54,"word","new","new",1,1.578196
"2071",107,55,"word","old","new",0,1.55443
"2072",107,56,"word","new","new",1,1.171709
"2073",107,57,"word","old","old",1,1.455941
"2074",107,58,"word","new","new",1,1.063553
"2075",107,59,"word","old","new",0,6.837077
"2076",107,60,"word","new","new",1,1.078471
"2077",107,61,"word","old","old",1,1.589981
"2078",107,62,"word","old","old",1,1.160453
"2079",107,63,"word","old","old",1,1.149008
"2080",107,64,"word","new","new",1,1.265872
"2081",107,65,"word","old","old",1,1.170865
"2082",107,66,"word","old","old",1,1.482974
"2083",107,67,"word","new","new",1,1.149735
"2084",107,68,"word","new","old",0,8.316973
"2085",107,69,"word","old","old",1,5.36824
"2086",107,70,"word","old","old",1,1.513532
"2087",107,71,"word","new","old",0,7.500804
"2088",107,72,"word","old","new",0,1.597706
"2089",107,73,"word","new","old",0,7.458221
"2090",107,74,"word","old","old",1,1.078267
"2091",107,75,"word","old","old",1,1.624993
"2092",107,76,"word","old","old",1,1.094389
"2093",107,77,"word","old","old",1,0.985134
"2094",107,78,"word","old","old",1,0.969811
"2095",107,79,"word","old","old",1,1.094528
"2096",107,80,"word","old","old",1,3.075945
"2097",107,81,"word","old","old",1,1.594009
"2098",107,82,"word","old","old",1,2.748014
"2099",107,83,"word","new","new",1,2.762225
"2100",107,84,"word","new","new",1,1.483819
"2101",107,85,"word","new","new",1,1.062399
"2102",107,86,"word","old","old",1,1.293698
"2103",107,87,"word","old","old",1,1.281953
"2104",107,88,"word","old","old",1,1.054327
"2105",107,89,"word","old","old",1,1.181673
"2106",107,90,"word","new","old",0,1.905682
"2107",107,91,"word","new","new",1,1.406231
"2108",107,92,"word","old","old",1,1.387019
"2109",107,93,"word","old","old",1,1.362848
"2110",107,94,"word","new","new",1,1.609503
"2111",107,95,"word","old","old",1,1.163949
"2112",107,96,"word","old","old",1,1.47724
"2113",107,97,"word","new","new",1,2.030809
"2114",107,98,"word","old","old",1,2.030814
"2115",107,99,"word","new","old",0,2.441676
"2116",107,100,"word","new","new",1,1.578675
"2117",107,101,"word","old","old",1,2.215222
"2118",107,102,"word","old","old",1,1.290647
"2119",107,103,"word","old","old",1,1.188315
"2120",107,104,"word","old","old",1,1.532035
"2121",107,105,"word","new","old",0,3.200355
"2122",107,106,"word","old","old",1,1.094152
"2123",107,107,"word","new","new",1,1.31341
"2124",107,108,"word","new","old",0,1.375234
"2125",107,109,"word","new","new",1,1.695063
"2126",107,110,"word","new","old",0,1.617579
"2127",107,111,"word","old","old",1,1.500061
"2128",107,112,"word","old","old",1,1.266356
"2129",107,113,"pict","old","old",1,2.8136
"2130",107,114,"pict","new","new",1,1.798785
"2131",107,115,"pict","new","new",1,1.257844
"2132",107,116,"pict","new","new",1,1.153181
"2133",107,117,"pict","new","new",1,2.62442
"2134",107,118,"pict","new","new",1,1.271284
"2135",107,119,"pict","old","old",1,1.367064
"2136",107,120,"pict","old","new",0,1.372225
"2137",107,121,"pict","new","old",0,1.463066
"2138",107,122,"pict","new","new",1,1.698322
"2139",107,123,"pict","old","old",1,1.37492
"2140",107,124,"pict","old","old",1,1.611598
"2141",107,125,"pict","new","new",1,1.174798
"2142",107,126,"pict","old","old",1,1.605799
"2143",107,127,"pict","new","new",1,1.25163
"2144",107,128,"pict","new","new",1,1.254738
"2145",107,129,"pict","old","old",1,1.163849
"2146",107,130,"pict","new","new",1,1.169058
"2147",107,131,"pict","old","old",1,1.267301
"2148",107,132,"pict","old","old",1,1.478226
"2149",107,133,"pict","new","new",1,2.41565
"2150",107,134,"pict","old","old",1,2.10082
"2151",107,135,"pict","old","old",1,1.46684
"2152",107,136,"pict","old","old",1,2.025577
"2153",107,137,"pict","old","old",1,1.359031
"2154",107,138,"pict","old","old",1,1.618833
"2155",107,139,"pict","new","new",1,1.685409
"2156",107,140,"pict","new","new",1,1.306298
"2157",107,141,"pict","old","old",1,1.462479
"2158",107,142,"pict","old","old",1,1.485278
"2159",107,143,"pict","old","old",1,1.375571
"2160",107,144,"pict","old","old",1,1.375046
"2161",107,145,"pict","old","old",1,1.378641
"2162",107,146,"pict","new","new",1,1.194546
"2163",107,147,"pict","old","new",0,1.186719
"2164",107,148,"pict","old","old",1,1.260943
"2165",107,149,"pict","new","new",1,1.670913
"2166",107,150,"pict","old","old",1,2.117086
"2167",107,151,"pict","new","new",1,1.491554
"2168",107,152,"pict","new","new",1,1.250219
"2169",107,153,"pict","old","old",1,1.57238
"2170",107,154,"pict","new","new",1,1.386661
"2171",107,155,"pict","new","new",1,1.347825
"2172",107,156,"pict","old","old",1,1.766506
"2173",107,157,"pict","new","new",1,1.908517
"2174",107,158,"pict","old","old",1,1.49348
"2175",107,159,"pict","new","new",1,1.252368
"2176",107,160,"pict","old","old",1,1.588563
"2177",107,161,"pict","old","old",1,1.573624
"2178",107,162,"pict","old","old",1,1.472257
"2179",107,163,"pict","new","new",1,2.231998
"2180",107,164,"pict","old","old",1,1.405581
"2181",107,165,"pict","old","old",1,2.324129
"2182",107,166,"pict","old","new",0,1.387204
"2183",107,167,"pict","new","new",1,1.480422
"2184",107,168,"pict","new","new",1,1.382523
"2185",107,169,"pict","old","old",1,1.356746
"2186",107,170,"pict","old","old",1,1.484595
"2187",107,171,"pict","old","old",1,1.265531
"2188",107,172,"pict","old","old",1,1.263671
"2189",107,173,"pict","old","old",1,1.290439
"2190",107,174,"pict","old","old",1,1.509535
"2191",107,175,"pict","new","new",1,1.400638
"2192",107,176,"pict","new","new",1,1.462602
"2193",107,177,"pict","new","new",1,1.274174
"2194",107,178,"pict","new","new",1,1.688459
"2195",107,179,"pict","new","new",1,1.509504
"2196",107,180,"pict","new","new",1,1.371104
"2197",107,181,"pict","old","new",0,1.470321
"2198",107,182,"pict","old","old",1,1.361696
"2199",107,183,"pict","old","old",1,1.494271
"2200",107,184,"pict","new","new",1,1.38668
"2201",107,185,"pict","new","new",1,1.787776
"2202",107,186,"pict","old","old",1,1.291552
"2203",107,187,"pict","old","old",1,1.681641
"2204",107,188,"pict","old","new",0,1.594485
"2205",107,189,"pict","new","new",1,1.389661
"2206",107,190,"pict","new","old",0,1.481759
"2207",107,191,"pict","old","new",0,2.103852
"2208",107,192,"pict","new","new",1,1.621516
"2209",107,193,"pict","new","new",1,1.094228
"2210",107,194,"pict","old","old",1,1.483363
"2211",107,195,"pict","old","old",1,1.900401
"2212",107,196,"pict","new","new",1,1.467089
"2213",107,197,"pict","new","new",1,3.284919
"2214",107,198,"pict","old","old",1,1.600151
"2215",107,199,"pict","new","new",1,1.264284
"2216",107,200,"pict","new","new",1,1.830319
"2217",107,201,"pict","old","old",1,1.473061
"2218",107,202,"pict","new","new",1,1.471484
"2219",107,203,"pict","new","new",1,1.273423
"2220",107,204,"pict","old","old",1,1.684177
"2221",107,205,"pict","new","new",1,1.255151
"2222",107,206,"pict","new","new",1,1.284323
"2223",107,207,"pict","old","old",1,1.481455
"2224",107,208,"pict","old","old",1,1.355417
"2225",107,209,"pict","old","old",1,1.294391
"2226",107,210,"pict","new","new",1,1.607223
"2227",107,211,"pict","new","new",1,1.479183
"2228",107,212,"pict","new","new",1,1.399579
"2229",107,213,"pict","new","new",1,3.769082
"2230",107,214,"pict","old","old",1,1.458183
"2231",107,215,"pict","new","old",0,2.239076
"2232",107,216,"pict","new","new",1,1.507326
"2233",107,217,"pict","new","new",1,1.41293
"2234",107,218,"pict","new","new",1,1.380353
"2235",107,219,"pict","new","new",1,1.826717
"2236",107,220,"pict","old","old",1,1.349905
"2237",107,221,"pict","old","old",1,1.472787
"2238",107,222,"pict","old","old",1,1.667413
"2239",107,223,"pict","new","new",1,2.274671
"2240",107,224,"pict","new","new",1,1.47242
"2241",108,1,"pict","old","old",1,1.825225
"2242",108,2,"pict","old","old",1,5.769466
"2243",108,3,"pict","old","old",1,1.201441
"2244",108,4,"pict","old","old",1,1.424398
"2245",108,5,"pict","old","old",1,1.190573
"2246",108,6,"pict","old","new",0,1.595512
"2247",108,7,"pict","old","new",0,1.459619
"2248",108,8,"pict","old","old",1,4.528399
"2249",108,9,"pict","new","old",0,1.311719
"2250",108,10,"pict","new","new",1,1.294178
"2251",108,11,"pict","old","old",1,1.46599
"2252",108,12,"pict","new","new",1,1.397858
"2253",108,13,"pict","new","new",1,1.059248
"2254",108,14,"pict","new","new",1,1.095072
"2255",108,15,"pict","new","new",1,1.086011
"2256",108,16,"pict","old","old",1,1.928122
"2257",108,17,"pict","new","new",1,1.050675
"2258",108,18,"pict","new","new",1,1.281797
"2259",108,19,"pict","old","new",0,0.985486
"2260",108,20,"pict","new","new",1,1.093988
"2261",108,21,"pict","new","new",1,0.983454
"2262",108,22,"pict","new","new",1,0.980645
"2263",108,23,"pict","old","new",0,1.308808
"2264",108,24,"pict","new","new",1,0.984673
"2265",108,25,"pict","new","new",1,1.090426
"2266",108,26,"pict","new","new",1,1.195058
"2267",108,27,"pict","old","new",0,1.303999
"2268",108,28,"pict","old","old",1,2.163828
"2269",108,29,"pict","new","new",1,1.17038
"2270",108,30,"pict","new","new",1,1.286625
"2271",108,31,"pict","new","new",1,1.192133
"2272",108,32,"pict","old","old",1,2.230566
"2273",108,33,"pict","old","old",1,1.067897
"2274",108,34,"pict","old","old",1,2.242261
"2275",108,35,"pict","old","new",0,1.397352
"2276",108,36,"pict","old","old",1,1.39363
"2277",108,37,"pict","new","new",1,1.557358
"2278",108,38,"pict","old","new",0,1.089592
"2279",108,39,"pict","new","new",1,1.388098
"2280",108,40,"pict","new","new",1,1.491078
"2281",108,41,"pict","old","new",0,1.232154
"2282",108,42,"pict","new","new",1,1.054572
"2283",108,43,"pict","new","new",1,2.07386
"2284",108,44,"pict","new","new",1,1.088267
"2285",108,45,"pict","new","new",1,1.18396
"2286",108,46,"pict","old","old",1,1.676185
"2287",108,47,"pict","new","new",1,1.784794
"2288",108,48,"pict","old","old",1,1.918593
"2289",108,49,"pict","old","old",1,1.550592
"2290",108,50,"pict","new","new",1,1.459584
"2291",108,51,"pict","new","new",1,1.167993
