"","sub","trial","condition","stim","correct","RT"
"1",1,1,1,1,1,1.96
"2",1,2,1,1,1,2.39
"3",1,3,1,1,1,2.72
"4",1,4,1,1,0,3.38
"5",1,5,1,1,1,1.63
"6",1,6,1,1,1,6.44
"7",1,7,1,1,1,1.41
"8",1,8,1,1,1,1.08
"9",1,9,1,1,1,1.74
"10",1,10,1,1,0,1.85
"11",1,11,1,1,1,3.38
"12",1,12,1,1,1,1.41
"13",1,13,1,1,1,1.3
"14",1,14,1,1,1,1.96
"15",1,15,1,1,1,2.18
"16",1,16,1,1,0,3.27
"17",1,17,1,1,0,2.29
"18",1,18,1,1,0,2.39
"19",1,19,1,1,1,1.74
"20",1,20,1,1,1,1.85
"21",1,21,1,1,1,2.61
"22",1,22,1,1,1,2.07
"23",1,23,1,1,1,3.17
"24",1,24,1,1,0,0.97
"25",1,25,1,1,1,3.71
"26",1,26,1,1,1,1.96
"27",1,27,1,1,1,2.18
"28",1,28,1,1,1,0.86
"29",1,29,1,1,1,4.36
"30",1,30,1,1,1,1.3
"31",1,31,1,1,1,1.08
"32",1,32,1,1,1,1.85
"33",1,33,1,1,1,5.35
"34",1,34,1,1,1,1.08
"35",1,35,1,1,1,1.74
"36",1,36,1,1,0,1.41
"37",1,37,1,1,1,1.63
"38",1,38,1,1,1,1.19
"39",1,39,1,1,1,1.96
"40",1,40,1,1,1,1.41
"41",1,41,1,1,1,1.3
"42",1,42,1,1,1,1.63
"43",1,43,1,1,1,1.74
"44",1,44,1,1,1,1.74
"45",1,45,1,1,1,2.5
"46",1,46,1,1,1,2.61
"47",1,47,1,1,1,1.63
"48",1,48,1,1,1,1.41
"49",1,49,1,1,0,2.83
"50",1,50,1,1,1,1.63
"51",1,51,1,0,1,2.95
"52",1,52,1,0,1,1.85
"53",1,53,1,0,1,2.4
"54",1,54,1,0,1,2.08
"55",1,55,1,0,1,2.95
"56",1,56,1,0,1,2.07
"57",1,57,1,0,1,1.64
"58",1,58,1,0,1,1.96
"59",1,59,1,0,1,1.64
"60",1,60,1,0,1,1.64
"61",1,61,1,0,1,1.85
"62",1,62,1,0,1,2.18
"63",1,63,1,0,1,1.42
"64",1,64,1,0,1,3.93
"65",1,65,1,0,1,1.3
"66",1,66,1,0,1,1.63
"67",1,67,1,0,1,2.07
"68",1,68,1,0,1,2.62
"69",1,69,1,0,1,1.2
"70",1,70,1,0,1,2.08
"71",1,71,1,0,0,2.18
"72",1,72,1,0,1,1.96
"73",1,73,1,0,1,1.85
"74",1,74,1,0,1,1.53
"75",1,75,1,0,1,2.62
"76",1,76,1,0,1,3.6
"77",1,77,1,0,1,1.63
"78",1,78,1,0,0,2.07
"79",1,79,1,0,1,1.63
"80",1,80,1,0,1,2.62
"81",1,81,1,0,0,3.49
"82",1,82,1,0,1,2.07
"83",1,83,1,0,1,2.29
"84",1,84,1,0,0,1.96
"85",1,85,1,0,0,3.6
"86",1,86,1,0,1,2.95
"87",1,87,1,0,0,2.5
"88",1,88,1,0,0,1.85
"89",1,89,1,0,0,4.03
"90",1,90,1,0,0,3.16
"91",1,91,1,0,1,1.53
"92",1,92,1,0,1,2.4
"93",1,93,1,0,0,1.63
"94",1,94,1,0,1,2.39
"95",1,95,1,0,0,1.75
"96",1,96,1,0,1,3.6
"97",1,97,1,0,1,1.42
"98",1,98,1,0,1,2.4
"99",1,99,1,0,0,1.96
"100",1,100,1,0,1,2.18
"101",1,1,3,1,1,1.63
"102",1,2,3,1,0,3.16
"103",1,3,3,0,1,2.18
"104",1,4,3,1,1,1.96
"105",1,5,3,1,0,2.29
"106",1,6,3,0,1,2.51
"107",1,7,3,1,0,1.96
"108",1,8,3,0,1,2.18
"109",1,9,3,0,1,1.74
"110",1,10,3,1,1,1.52
"111",1,11,3,0,1,1.85
"112",1,12,3,0,1,1.85
"113",1,13,3,0,1,1.96
"114",1,14,3,0,1,2.07
"115",1,15,3,0,1,1.63
"116",1,16,3,1,1,1.85
"117",1,17,3,1,0,1.19
"118",1,18,3,0,1,1.64
"119",1,19,3,1,1,2.07
"120",1,20,3,1,0,1.3
"121",1,21,3,1,1,1.08
"122",1,22,3,1,0,2.18
"123",1,23,3,0,1,1.42
"124",1,24,3,1,1,1.64
"125",1,25,3,0,0,3.82
"126",1,26,3,0,1,2.61
"127",1,27,3,0,1,2.19
"128",1,28,3,1,1,1.08
"129",1,29,3,1,1,2.72
"130",1,30,3,1,0,1.64
"131",1,31,3,0,1,1.42
"132",1,32,3,1,1,1.41
"133",1,33,3,0,1,3.05
"134",1,34,3,1,1,2.07
"135",1,35,3,0,1,2.61
"136",1,36,3,0,1,1.63
"137",1,37,3,0,1,1.3
"138",1,38,3,1,1,1.63
"139",1,39,3,1,1,1.41
"140",1,40,3,0,1,2.4
"141",1,41,3,0,1,2.84
"142",1,42,3,0,1,2.29
"143",1,43,3,1,1,2.61
"144",1,44,3,0,1,2.18
"145",1,45,3,1,1,1.96
"146",1,46,3,1,1,1.31
"147",1,47,3,1,1,1.41
"148",1,48,3,1,0,1.96
"149",1,49,3,0,1,1.41
"150",1,50,3,0,1,1.63
"151",1,51,3,0,1,1.52
"152",1,52,3,1,1,1.3
"153",1,53,3,0,1,2.19
"154",1,54,3,1,0,3.49
"155",1,55,3,1,1,1.3
"156",1,56,3,1,1,1.52
"157",1,57,3,1,0,1.3
"158",1,58,3,0,1,1.31
"159",1,59,3,1,0,2.18
"160",1,60,3,0,0,2.61
"161",1,61,3,1,1,1.52
"162",1,62,3,0,1,1.41
"163",1,63,3,1,1,1.19
"164",1,64,3,1,1,1.3
"165",1,65,3,1,1,0.86
"166",1,66,3,0,1,1.85
"167",1,67,3,1,0,0.97
"168",1,68,3,0,0,2.07
"169",1,69,3,0,1,1.64
"170",1,70,3,0,0,1.19
"171",1,71,3,0,0,1.85
"172",1,72,3,1,0,1.41
"173",1,73,3,1,1,1.3
"174",1,74,3,1,1,1.74
"175",1,75,3,0,1,3.05
"176",1,76,3,0,1,0.87
"177",1,77,3,1,1,1.41
"178",1,78,3,1,1,1.19
"179",1,79,3,0,0,2.72
"180",1,80,3,0,1,1.96
"181",1,81,3,0,0,1.64
"182",1,82,3,0,1,0.98
"183",1,83,3,1,0,1.19
"184",1,84,3,0,1,2.29
"185",1,85,3,1,0,2.72
"186",1,86,3,0,0,2.06
"187",1,87,3,1,1,1.52
"188",1,88,3,0,1,3.06
"189",1,89,3,1,1,1.52
"190",1,90,3,1,0,1.19
"191",1,91,3,0,0,2.07
"192",1,92,3,1,1,1.19
"193",1,93,3,0,0,1.75
"194",1,94,3,1,1,1.63
"195",1,95,3,1,1,0.88
"196",1,96,3,0,0,2.18
"197",1,97,3,0,1,2.72
"198",1,98,3,1,1,1.3
"199",1,99,3,0,0,2.84
"200",1,100,3,0,1,1.41
"201",2,1,2,0,1,7.86
"202",2,2,2,0,0,3.49
"203",2,3,2,0,0,3.38
"204",2,4,2,0,1,3.61
"205",2,5,2,0,0,12.8
"206",2,6,2,0,1,4.26
"207",2,7,2,0,1,5.47
"208",2,8,2,0,0,2.84
"209",2,9,2,0,1,7.22
"210",2,10,2,0,1,2.62
"211",2,11,2,0,1,4.05
"212",2,12,2,0,1,1.75
"213",2,13,2,0,1,4.04
"214",2,14,2,0,0,4.47
"215",2,15,2,0,1,1.42
"216",2,16,2,0,1,4.36
"217",2,17,2,0,0,4.25
"218",2,18,2,0,1,13.3
"219",2,19,2,0,0,4.37
"220",2,20,2,0,1,2.61
"221",2,21,2,0,1,1.97
"222",2,22,2,0,1,2.73
"223",2,23,2,0,1,1.64
"224",2,24,2,0,1,8.84
"225",2,25,2,0,1,2.52
"226",2,26,2,0,1,10.1
"227",2,27,2,0,1,5.79
"228",2,28,2,0,1,1.96
"229",2,29,2,0,1,2.29
"230",2,30,2,0,0,3.5
"231",2,31,2,0,1,3.27
"232",2,32,2,0,1,2.08
"233",2,33,2,0,1,3.83
"234",2,34,2,0,1,2.73
"235",2,35,2,0,1,3.17
"236",2,36,2,0,1,3.39
"237",2,37,2,0,0,3.5
"238",2,38,2,0,1,4.7
"239",2,39,2,0,1,3.61
"240",2,40,2,0,0,4.81
"241",2,41,2,0,1,5.13
"242",2,42,2,0,0,4.7
"243",2,43,2,0,1,1.53
"244",2,44,2,0,1,2.3
"245",2,45,2,0,0,3.06
"246",2,46,2,0,1,3.17
"247",2,47,2,0,1,4.48
"248",2,48,2,0,1,2.84
"249",2,49,2,0,1,3.83
"250",2,50,2,0,0,5.03
"251",2,51,2,1,1,3.05
"252",2,52,2,1,1,2.28
"253",2,53,2,1,0,2.94
"254",2,54,2,1,1,6.33
"255",2,55,2,1,1,2.18
"256",2,56,2,1,1,1.3
"257",2,57,2,1,1,1.3
"258",2,58,2,1,1,2.29
"259",2,59,2,1,0,4.36
"260",2,60,2,1,1,1.41
"261",2,61,2,1,1,2.5
"262",2,62,2,1,1,1.85
"263",2,63,2,1,1,2.28
"264",2,64,2,1,0,6.66
"265",2,65,2,1,0,3.38
"266",2,66,2,1,1,4.58
"267",2,67,2,1,1,2.29
"268",2,68,2,1,1,2.07
"269",2,69,2,1,1,1.74
"270",2,70,2,1,0,4.69
"271",2,71,2,1,0,4.91
"272",2,72,2,1,1,3.6
"273",2,73,2,1,1,1.19
"274",2,74,2,1,1,1.3
"275",2,75,2,1,1,5.35
"276",2,76,2,1,1,2.83
"277",2,77,2,1,1,2.18
"278",2,78,2,1,1,1.19
"279",2,79,2,1,1,2.18
"280",2,80,2,1,1,3.82
"281",2,81,2,1,1,4.04
"282",2,82,2,1,0,3.82
"283",2,83,2,1,0,3.05
"284",2,84,2,1,1,1.96
"285",2,85,2,1,1,2.83
"286",2,86,2,1,1,2.5
"287",2,87,2,1,1,1.96
"288",2,88,2,1,1,2.94
"289",2,89,2,1,1,1.74
"290",2,90,2,1,1,1.41
"291",2,91,2,1,1,1.3
"292",2,92,2,1,1,4.58
"293",2,93,2,1,1,2.72
"294",2,94,2,1,1,2.18
"295",2,95,2,1,1,2.29
"296",2,96,2,1,1,4.69
"297",2,97,2,1,1,3.38
"298",2,98,2,1,1,3.6
"299",2,99,2,1,1,2.83
"300",2,100,2,1,1,2.28
"301",2,1,3,0,1,4.69
"302",2,2,3,1,1,2.5
"303",2,3,3,1,1,1.63
"304",2,4,3,1,1,1.19
"305",2,5,3,0,0,6.23
"306",2,6,3,1,1,1.96
"307",2,7,3,0,1,3.71
"308",2,8,3,1,1,5.35
"309",2,9,3,1,1,0.97
"310",2,10,3,0,1,2.73
"311",2,11,3,0,1,1.53
"312",2,12,3,1,1,2.94
"313",2,13,3,0,1,1.52
"314",2,14,3,1,1,2.72
"315",2,15,3,0,1,1.31
"316",2,16,3,1,0,3.6
"317",2,17,3,0,1,2.17
"318",2,18,3,0,1,5.03
"319",2,19,3,1,1,1.85
"320",2,20,3,1,1,2.72
"321",2,21,3,0,1,2.51
"322",2,22,3,1,1,2.07
"323",2,23,3,0,1,3.71
"324",2,24,3,1,1,2.07
"325",2,25,3,0,1,3.39
"326",2,26,3,1,1,1.63
"327",2,27,3,1,1,5.13
"328",2,28,3,1,1,1.74
"329",2,29,3,0,1,1.52
"330",2,30,3,0,1,2.39
"331",2,31,3,0,1,2.3
"332",2,32,3,0,0,3.72
"333",2,33,3,0,0,6.33
"334",2,34,3,1,1,6.11
"335",2,35,3,1,0,2.61
"336",2,36,3,1,1,1.3
"337",2,37,3,0,1,2.4
"338",2,38,3,0,1,3.61
"339",2,39,3,1,1,4.47
"340",2,40,3,0,1,2.62
"341",2,41,3,1,1,2.18
"342",2,42,3,1,1,2.39
"343",2,43,3,0,1,2.95
"344",2,44,3,0,1,1.85
"345",2,45,3,1,1,1.85
"346",2,46,3,1,1,1.74
"347",2,47,3,0,1,4.37
"348",2,48,3,0,1,2.5
"349",2,49,3,0,1,3.39
"350",2,50,3,0,0,3.06
"351",2,51,3,0,1,2.28
"352",2,52,3,1,1,2.61
"353",2,53,3,1,0,2.28
"354",2,54,3,0,1,1.42
"355",2,55,3,1,1,2.94
"356",2,56,3,1,1,2.5
"357",2,57,3,1,1,4.47
"358",2,58,3,0,1,3.05
"359",2,59,3,0,1,1.31
"360",2,60,3,0,0,2.5
"361",2,61,3,0,1,3.28
"362",2,62,3,1,1,2.61
"363",2,63,3,0,1,2.62
"364",2,64,3,0,1,1.63
"365",2,65,3,1,1,7.54
"366",2,66,3,0,1,2.19
"367",2,67,3,1,1,2.72
"368",2,68,3,1,1,2.18
"369",2,69,3,0,1,3.05
"370",2,70,3,0,1,2.5
"371",2,71,3,1,1,1.63
"372",2,72,3,0,1,2.5
"373",2,73,3,0,1,2.06
"374",2,74,3,0,1,2.06
"375",2,75,3,1,1,1.85
"376",2,76,3,0,1,1.95
"377",2,77,3,1,1,1.63
"378",2,78,3,1,1,1.3
"379",2,79,3,1,1,1.19
"380",2,80,3,1,1,1.96
"381",2,81,3,0,1,3.71
"382",2,82,3,0,0,3.92
"383",2,83,3,0,0,2.4
"384",2,84,3,0,0,5.14
"385",2,85,3,1,1,1.96
"386",2,86,3,0,1,2.19
"387",2,87,3,1,1,2.18
"388",2,88,3,1,0,3.71
"389",2,89,3,1,1,1.85
"390",2,90,3,0,0,3.5
"391",2,91,3,0,1,1.42
"392",2,92,3,1,1,2.83
"393",2,93,3,1,1,1.08
"394",2,94,3,1,0,4.14
"395",2,95,3,1,1,1.74
"396",2,96,3,0,1,2.84
"397",2,97,3,1,1,4.14
"398",2,98,3,0,1,2.08
"399",2,99,3,1,0,1.85
"400",2,100,3,1,1,1.41
"401",3,1,3,1,1,2.4
"402",3,2,3,0,0,6.89
"403",3,3,3,1,1,2.94
"404",3,4,3,1,1,10.9
"405",3,5,3,0,0,3.39
"406",3,6,3,0,0,4.26
"407",3,7,3,0,1,2.07
"408",3,8,3,0,0,2.62
"409",3,9,3,0,1,4.04
"410",3,10,3,1,1,1.85
"411",3,11,3,0,1,1.74
"412",3,12,3,1,1,1.19
"413",3,13,3,0,1,1.96
"414",3,14,3,1,1,1.41
"415",3,15,3,1,1,1.3
"416",3,16,3,1,1,1.63
"417",3,17,3,1,1,2.83
"418",3,18,3,1,1,1.74
"419",3,19,3,0,0,3.71
"420",3,20,3,1,1,1.63
"421",3,21,3,0,0,3.28
"422",3,22,3,1,1,1.08
"423",3,23,3,0,1,2.51
"424",3,24,3,1,1,1.64
"425",3,25,3,0,0,3.16
"426",3,26,3,1,1,1.41
"427",3,27,3,1,1,2.5
"428",3,28,3,0,1,2.29
"429",3,29,3,1,0,5.35
"430",3,30,3,1,1,1.41
"431",3,31,3,0,1,1.96
"432",3,32,3,1,1,1.85
"433",3,33,3,0,1,1.86
"434",3,34,3,1,1,2.94
"435",3,35,3,0,1,2.29
"436",3,36,3,0,1,3.17
"437",3,37,3,0,1,2.95
"438",3,38,3,0,0,3.93
"439",3,39,3,1,1,1.3
"440",3,40,3,0,0,6.56
"441",3,41,3,1,1,1.85
"442",3,42,3,1,0,3.16
"443",3,43,3,0,1,1.74
"444",3,44,3,1,1,0.97
"445",3,45,3,0,0,1.85
"446",3,46,3,1,1,2.61
"447",3,47,3,1,1,1.08
"448",3,48,3,1,1,2.94
"449",3,49,3,0,1,5.79
"450",3,50,3,0,1,2.18
"451",3,51,3,0,1,6.33
"452",3,52,3,1,1,1.74
"453",3,53,3,0,1,1.85
"454",3,54,3,0,1,1.97
"455",3,55,3,1,1,3.16
"456",3,56,3,1,1,0.97
"457",3,57,3,0,1,2.73
"458",3,58,3,1,1,1.52
"459",3,59,3,0,0,5.9
"460",3,60,3,0,0,3.27
"461",3,61,3,1,1,1.63
"462",3,62,3,1,1,1.96
"463",3,63,3,1,1,1.41
"464",3,64,3,1,1,2.83
"465",3,65,3,0,1,1.74
"466",3,66,3,0,1,1.85
"467",3,67,3,1,1,1.08
"468",3,68,3,0,0,2.39
"469",3,69,3,1,1,1.64
"470",3,70,3,0,0,3.5
"471",3,71,3,0,0,3.06
"472",3,72,3,1,0,4.15
"473",3,73,3,0,1,8.19
"474",3,74,3,0,1,2.18
"475",3,75,3,1,1,1.63
"476",3,76,3,0,1,2.62
"477",3,77,3,0,1,3.17
"478",3,78,3,1,0,2.5
"479",3,79,3,0,1,1.85
"480",3,80,3,1,0,2.17
"481",3,81,3,0,1,2.29
"482",3,82,3,1,1,2.4
"483",3,83,3,1,0,2.07
"484",3,84,3,0,0,3.71
"485",3,85,3,1,1,2.18
"486",3,86,3,0,0,3.17
"487",3,87,3,1,1,1.74
"488",3,88,3,0,1,4.26
"489",3,89,3,0,1,4.81
"490",3,90,3,1,0,2.18
"491",3,91,3,0,0,1.85
"492",3,92,3,1,0,1.63
"493",3,93,3,0,0,2.83
"494",3,94,3,1,1,1.52
"495",3,95,3,1,0,2.07
"496",3,96,3,1,1,1.41
"497",3,97,3,0,1,2.73
"498",3,98,3,0,1,4.26
"499",3,99,3,0,1,2.29
"500",3,100,3,1,1,1.3
"501",3,1,1,1,1,1.63
"502",3,2,1,1,1,1.85
"503",3,3,1,1,1,1.41
"504",3,4,1,1,1,1.19
"505",3,5,1,1,1,1.63
"506",3,6,1,1,1,1.96
"507",3,7,1,1,0,2.83
"508",3,8,1,1,0,2.06
"509",3,9,1,1,1,1.19
"510",3,10,1,1,0,1.63
"511",3,11,1,1,0,4.03
"512",3,12,1,1,1,1.41
"513",3,13,1,1,1,1.08
"514",3,14,1,1,1,1.3
"515",3,15,1,1,1,2.07
"516",3,16,1,1,1,2.72
"517",3,17,1,1,1,1.52
"518",3,18,1,1,1,1.96
"519",3,19,1,1,1,4.14
"520",3,20,1,1,1,1.63
"521",3,21,1,1,1,1.41
"522",3,22,1,1,1,1.85
"523",3,23,1,1,1,1.74
"524",3,24,1,1,1,3.49
"525",3,25,1,1,1,1.52
"526",3,26,1,1,1,1.08
"527",3,27,1,1,1,1.52
"528",3,28,1,1,1,1.08
"529",3,29,1,1,1,1.52
"530",3,30,1,1,1,1.41
"531",3,31,1,1,1,1.85
"532",3,32,1,1,1,1.3
"533",3,33,1,1,1,1.63
"534",3,34,1,1,1,0.97
"535",3,35,1,1,1,2.4
"536",3,36,1,1,1,1.63
"537",3,37,1,1,1,0.86
"538",3,38,1,1,1,1.96
"539",3,39,1,1,1,1.74
"540",3,40,1,1,1,2.28
"541",3,41,1,1,0,1.63
"542",3,42,1,1,1,1.52
"543",3,43,1,1,1,1.41
"544",3,44,1,1,1,2.28
"545",3,45,1,1,0,2.39
"546",3,46,1,1,1,1.96
"547",3,47,1,1,1,0.97
"548",3,48,1,1,1,1.3
"549",3,49,1,1,1,1.41
"550",3,50,1,1,1,1.41
"551",3,51,1,0,1,4.15
"552",3,52,1,0,1,1.96
"553",3,53,1,0,1,2.51
"554",3,54,1,0,0,2.73
"555",3,55,1,0,0,1.85
"556",3,56,1,0,1,1.42
"557",3,57,1,0,1,1.97
"558",3,58,1,0,1,3.7
"559",3,59,1,0,1,1.52
"560",3,60,1,0,0,2.95
"561",3,61,1,0,1,1.85
"562",3,62,1,0,0,2.07
"563",3,63,1,0,1,1.31
"564",3,64,1,0,1,2.4
"565",3,65,1,0,1,2.19
"566",3,66,1,0,1,1.52
"567",3,67,1,0,0,1.85
"568",3,68,1,0,0,2.51
"569",3,69,1,0,1,1.42
"570",3,70,1,0,1,1.2
"571",3,71,1,0,1,2.73
"572",3,72,1,0,1,2.62
"573",3,73,1,0,1,2.4
"574",3,74,1,0,1,1.53
"575",3,75,1,0,1,3.5
"576",3,76,1,0,0,2.95
"577",3,77,1,0,1,1.53
"578",3,78,1,0,1,3.27
"579",3,79,1,0,0,1.63
"580",3,80,1,0,1,1.75
"581",3,81,1,0,1,1.53
"582",3,82,1,0,1,1.64
"583",3,83,1,0,1,3.28
"584",3,84,1,0,1,4.81
"585",3,85,1,0,0,1.75
"586",3,86,1,0,1,2.84
"587",3,87,1,0,1,1.85
"588",3,88,1,0,0,2.4
"589",3,89,1,0,1,2.18
"590",3,90,1,0,1,1.85
"591",3,91,1,0,0,3.06
"592",3,92,1,0,1,4.59
"593",3,93,1,0,1,6.01
"594",3,94,1,0,0,2.95
"595",3,95,1,0,1,1.86
"596",3,96,1,0,0,2.84
"597",3,97,1,0,1,3.6
"598",3,98,1,0,1,1.74
"599",3,99,1,0,1,2.51
"600",3,100,1,0,1,3.06
"601",4,1,3,1,1,1.96
"602",4,2,3,0,0,2.84
"603",4,3,3,0,1,1.31
"604",4,4,3,1,1,1.52
"605",4,5,3,1,1,1.08
"606",4,6,3,1,1,1.3
"607",4,7,3,1,1,1.3
"608",4,8,3,1,1,1.52
"609",4,9,3,1,1,2.29
"610",4,10,3,0,1,1.42
"611",4,11,3,0,1,2.62
"612",4,12,3,0,1,1.63
"613",4,13,3,1,1,1.19
"614",4,14,3,1,1,1.19
"615",4,15,3,1,1,0.97
"616",4,16,3,1,1,1.74
"617",4,17,3,1,1,1.19
"618",4,18,3,1,0,1.3
"619",4,19,3,1,1,1.19
"620",4,20,3,0,1,1.42
"621",4,21,3,1,1,2.29
"622",4,22,3,1,1,1.19
"623",4,23,3,1,1,1.31
"624",4,24,3,0,1,1.64
"625",4,25,3,1,1,1.08
"626",4,26,3,0,1,2.19
"627",4,27,3,1,1,1.08
"628",4,28,3,0,1,1.86
"629",4,29,3,0,1,1.96
"630",4,30,3,1,1,2.07
"631",4,31,3,1,0,1.41
"632",4,32,3,0,0,1.64
"633",4,33,3,1,1,2.07
"634",4,34,3,0,0,2.5
"635",4,35,3,0,1,1.74
"636",4,36,3,0,0,2.95
"637",4,37,3,0,1,1.95
"638",4,38,3,0,1,2.83
"639",4,39,3,1,1,1.08
"640",4,40,3,0,0,2.3
"641",4,41,3,1,0,1.52
"642",4,42,3,1,1,1.85
"643",4,43,3,1,0,2.72
"644",4,44,3,1,1,1.41
"645",4,45,3,0,1,3.28
"646",4,46,3,0,0,2.83
"647",4,47,3,0,1,4.47
"648",4,48,3,1,0,1.3
"649",4,49,3,0,1,1.84
"650",4,50,3,0,1,1.63
"651",4,51,3,1,1,0.76
"652",4,52,3,0,1,1.64
"653",4,53,3,0,0,1.63
"654",4,54,3,1,1,1.63
"655",4,55,3,0,1,1.85
"656",4,56,3,0,0,3.17
"657",4,57,3,1,1,1.41
"658",4,58,3,0,1,3.06
"659",4,59,3,0,0,2.51
"660",4,60,3,1,1,1.2
"661",4,61,3,1,1,1.08
"662",4,62,3,1,1,1.41
"663",4,63,3,1,1,1.63
"664",4,64,3,1,1,1.3
"665",4,65,3,1,1,1.3
"666",4,66,3,0,1,2.51
"667",4,67,3,0,1,1.95
"668",4,68,3,0,0,2.3
"669",4,69,3,1,0,1.41
"670",4,70,3,0,1,3.17
"671",4,71,3,0,1,2.4
"672",4,72,3,0,1,1.63
"673",4,73,3,1,0,1.74
"674",4,74,3,1,1,0.86
"675",4,75,3,0,1,1.53
"676",4,76,3,1,1,1.3
"677",4,77,3,0,1,2.19
"678",4,78,3,0,1,2.51
"679",4,79,3,1,1,1.3
"680",4,80,3,0,0,2.63
"681",4,81,3,1,1,1.52
"682",4,82,3,0,1,1.97
"683",4,83,3,1,1,1.3
"684",4,84,3,0,1,2.17
"685",4,85,3,1,1,1.09
"686",4,86,3,1,0,1.74
"687",4,87,3,0,1,2.17
"688",4,88,3,0,1,2.08
"689",4,89,3,1,1,1.19
"690",4,90,3,0,1,2.19
"691",4,91,3,0,0,2.08
"692",4,92,3,0,1,3.39
"693",4,93,3,1,1,2.07
"694",4,94,3,0,1,1.97
"695",4,95,3,0,0,2.51
"696",4,96,3,0,0,3.16
"697",4,97,3,1,1,1.3
"698",4,98,3,1,1,1.85
"699",4,99,3,0,1,2.17
"700",4,100,3,0,1,2.17
"701",4,1,2,0,0,2.4
"702",4,2,2,0,1,1.75
"703",4,3,2,0,1,1.63
"704",4,4,2,0,1,2.08
"705",4,5,2,0,1,1.97
"706",4,6,2,0,1,2.19
"707",4,7,2,0,0,2.4
"708",4,8,2,0,1,2.4
"709",4,9,2,0,1,2.19
"710",4,10,2,0,0,1.97
"711",4,11,2,0,0,1.86
"712",4,12,2,0,1,2.29
"713",4,13,2,0,1,2.3
"714",4,14,2,0,0,1.75
"715",4,15,2,0,0,2.4
"716",4,16,2,0,0,1.53
"717",4,17,2,0,0,2.06
"718",4,18,2,0,1,2.19
"719",4,19,2,0,1,1.63
"720",4,20,2,0,1,2.4
"721",4,21,2,0,1,2.19
"722",4,22,2,0,1,1.63
"723",4,23,2,0,1,1.74
"724",4,24,2,0,0,2.19
"725",4,25,2,0,0,1.74
"726",4,26,2,0,1,2.3
"727",4,27,2,0,1,1.86
"728",4,28,2,0,1,1.74
"729",4,29,2,0,1,1.86
"730",4,30,2,0,1,1.86
"731",4,31,2,0,1,1.63
"732",4,32,2,0,1,1.63
"733",4,33,2,0,0,2.3
"734",4,34,2,0,0,2.17
"735",4,35,2,0,1,2.4
"736",4,36,2,0,1,2.29
"737",4,37,2,0,1,2.5
"738",4,38,2,0,1,1.75
"739",4,39,2,0,1,1.95
"740",4,40,2,0,1,1.96
"741",4,41,2,0,1,2.63
"742",4,42,2,0,1,1.74
"743",4,43,2,0,1,3.05
"744",4,44,2,0,1,1.97
"745",4,45,2,0,0,1.97
"746",4,46,2,0,1,2.08
"747",4,47,2,0,1,2.41
"748",4,48,2,0,1,1.86
"749",4,49,2,0,0,2.84
"750",4,50,2,0,0,1.96
"751",4,51,2,1,1,1.63
"752",4,52,2,1,0,1.96
"753",4,53,2,1,0,1.41
"754",4,54,2,1,1,1.52
"755",4,55,2,1,1,2.29
"756",4,56,2,1,1,1.63
"757",4,57,2,1,0,2.84
"758",4,58,2,1,0,2.29
"759",4,59,2,1,0,1.41
"760",4,60,2,1,1,1.52
"761",4,61,2,1,1,2.39
"762",4,62,2,1,1,1.19
"763",4,63,2,1,1,1.52
"764",4,64,2,1,0,1.41
"765",4,65,2,1,1,1.41
"766",4,66,2,1,1,2.51
"767",4,67,2,1,1,1.74
"768",4,68,2,1,1,2.17
"769",4,69,2,1,1,1.74
"770",4,70,2,1,1,1.96
"771",4,71,2,1,1,2.5
"772",4,72,2,1,1,1.63
"773",4,73,2,1,1,1.74
"774",4,74,2,1,1,4.25
"775",4,75,2,1,1,1.74
"776",4,76,2,1,1,1.41
"777",4,77,2,1,0,1.52
"778",4,78,2,1,1,1.52
"779",4,79,2,1,1,1.85
"780",4,80,2,1,1,1.74
"781",4,81,2,1,1,1.52
"782",4,82,2,1,1,1.74
"783",4,83,2,1,0,1.96
"784",4,84,2,1,1,2.4
"785",4,85,2,1,1,2.07
"786",4,86,2,1,0,1.85
"787",4,87,2,1,1,1.85
"788",4,88,2,1,0,3.6
"789",4,89,2,1,1,2.18
"790",4,90,2,1,1,2.61
"791",4,91,2,1,1,1.74
"792",4,92,2,1,0,3.05
"793",4,93,2,1,1,1.85
"794",4,94,2,1,1,2.39
"795",4,95,2,1,1,1.74
"796",4,96,2,1,0,5.35
"797",4,97,2,1,1,2.72
"798",4,98,2,1,1,1.74
"799",4,99,2,1,1,1.95
"800",4,100,2,1,0,1.85
"801",5,1,1,1,0,4.58
"802",5,2,1,1,1,2.74
"803",5,3,1,1,0,2.94
"804",5,4,1,1,1,2.07
"805",5,5,1,1,1,4.03
"806",5,6,1,1,1,1.63
"807",5,7,1,1,1,2.07
"808",5,8,1,1,0,2.5
"809",5,9,1,1,1,1.52
"810",5,10,1,1,1,1.74
"811",5,11,1,1,1,1.74
"812",5,12,1,1,1,1.19
"813",5,13,1,1,1,1.19
"814",5,14,1,1,1,1.63
"815",5,15,1,1,1,2.18
"816",5,16,1,1,1,3.05
"817",5,17,1,1,1,1.41
"818",5,18,1,1,1,1.52
"819",5,19,1,1,1,2.83
"820",5,20,1,1,1,2.29
"821",5,21,1,1,1,2.83
"822",5,22,1,1,1,1.52
"823",5,23,1,1,1,1.85
"824",5,24,1,1,1,1.19
"825",5,25,1,1,1,1.19
"826",5,26,1,1,1,1.3
"827",5,27,1,1,1,4.47
"828",5,28,1,1,1,2.18
"829",5,29,1,1,1,1.41
"830",5,30,1,1,1,1.63
"831",5,31,1,1,1,4.25
"832",5,32,1,1,1,2.61
"833",5,33,1,1,1,1.63
"834",5,34,1,1,1,1.52
"835",5,35,1,1,1,3.05
"836",5,36,1,1,0,2.07
"837",5,37,1,1,1,1.19
"838",5,38,1,1,1,1.41
"839",5,39,1,1,1,1.19
"840",5,40,1,1,0,1.63
"841",5,41,1,1,1,1.08
"842",5,42,1,1,1,1.41
"843",5,43,1,1,1,4.91
"844",5,44,1,1,1,1.41
"845",5,45,1,1,1,1.85
"846",5,46,1,1,1,0.97
"847",5,47,1,1,1,1.52
"848",5,48,1,1,1,0.86
"849",5,49,1,1,1,1.52
"850",5,50,1,1,1,2.29
"851",5,51,1,0,0,4.04
"852",5,52,1,0,1,1.86
"853",5,53,1,0,1,2.51
"854",5,54,1,0,1,4.59
"855",5,55,1,0,0,1.85
"856",5,56,1,0,1,1.96
"857",5,57,1,0,1,2.51
"858",5,58,1,0,1,2.62
"859",5,59,1,0,1,2.73
"860",5,60,1,0,1,2.51
"861",5,61,1,0,1,3.6
"862",5,62,1,0,0,2.18
"863",5,63,1,0,1,4.04
"864",5,64,1,0,1,1.85
"865",5,65,1,0,0,1.86
"866",5,66,1,0,1,1.74
"867",5,67,1,0,0,2.62
"868",5,68,1,0,1,2.18
"869",5,69,1,0,1,2.29
"870",5,70,1,0,1,1.85
"871",5,71,1,0,0,1.74
"872",5,72,1,0,1,2.18
"873",5,73,1,0,1,2.4
"874",5,74,1,0,0,2.51
"875",5,75,1,0,1,1.53
"876",5,76,1,0,1,2.5
"877",5,77,1,0,0,2.18
"878",5,78,1,0,0,2.07
"879",5,79,1,0,0,1.64
"880",5,80,1,0,0,1.53
"881",5,81,1,0,0,1.53
"882",5,82,1,0,1,3.93
"883",5,83,1,0,1,2.07
"884",5,84,1,0,0,3.72
"885",5,85,1,0,1,3.06
"886",5,86,1,0,0,2.18
"887",5,87,1,0,0,1.53
"888",5,88,1,0,1,1.86
"889",5,89,1,0,0,2.62
"890",5,90,1,0,1,1.53
"891",5,91,1,0,1,3.17
"892",5,92,1,0,1,2.07
"893",5,93,1,0,1,2.29
"894",5,94,1,0,0,1.42
"895",5,95,1,0,1,1.96
"896",5,96,1,0,1,3.93
"897",5,97,1,0,0,2.62
"898",5,98,1,0,1,2.84
"899",5,99,1,0,1,1.53
"900",5,100,1,0,1,2.29
"901",5,1,3,0,1,2.83
"902",5,2,3,1,0,2.61
"903",5,3,3,0,1,2.3
"904",5,4,3,0,1,1.42
"905",5,5,3,0,1,3.16
"906",5,6,3,1,1,1.85
"907",5,7,3,0,0,2.4
"908",5,8,3,1,1,1.63
"909",5,9,3,0,1,1.63
"910",5,10,3,1,1,1.41
"911",5,11,3,0,1,1.42
"912",5,12,3,0,1,2.29
"913",5,13,3,0,0,1.86
"914",5,14,3,1,0,1.85
"915",5,15,3,0,0,3.17
"916",5,16,3,1,0,3.27
"917",5,17,3,0,1,2.08
"918",5,18,3,1,0,3.16
"919",5,19,3,1,1,2.61
"920",5,20,3,0,0,2.07
"921",5,21,3,1,1,1.52
"922",5,22,3,0,0,1.63
"923",5,23,3,0,1,1.75
"924",5,24,3,0,0,1.64
"925",5,25,3,1,1,3.05
"926",5,26,3,1,1,1.08
"927",5,27,3,1,1,1.19
"928",5,28,3,0,1,1.96
"929",5,29,3,0,0,3.17
"930",5,30,3,0,1,2.07
"931",5,31,3,1,0,2.94
"932",5,32,3,0,0,2.18
"933",5,33,3,0,0,2.18
"934",5,34,3,0,1,1.96
"935",5,35,3,0,1,6.77
"936",5,36,3,1,1,1.3
"937",5,37,3,0,0,1.63
"938",5,38,3,0,1,2.51
"939",5,39,3,0,1,1.85
"940",5,40,3,1,1,1.63
"941",5,41,3,1,1,2.39
"942",5,42,3,1,1,1.3
"943",5,43,3,1,1,2.07
"944",5,44,3,0,0,3.82
"945",5,45,3,0,1,2.29
"946",5,46,3,1,1,2.83
"947",5,47,3,1,1,1.52
"948",5,48,3,0,0,2.62
"949",5,49,3,0,1,2.4
"950",5,50,3,0,1,1.97
"951",5,51,3,1,1,1.74
"952",5,52,3,1,0,2.29
"953",5,53,3,0,0,1.64
"954",5,54,3,0,1,1.86
"955",5,55,3,0,1,2.84
"956",5,56,3,1,1,1.42
"957",5,57,3,1,1,1.63
"958",5,58,3,1,1,1.41
"959",5,59,3,1,1,1.3
"960",5,60,3,1,1,1.19
"961",5,61,3,1,1,2.83
"962",5,62,3,1,0,1.52
"963",5,63,3,1,1,1.74
"964",5,64,3,1,1,1.41
"965",5,65,3,1,1,1.85
"966",5,66,3,0,1,2.18
"967",5,67,3,1,1,1.3
"968",5,68,3,0,1,2.84
"969",5,69,3,1,1,1.52
"970",5,70,3,0,0,3.93
"971",5,71,3,0,0,1.42
"972",5,72,3,0,0,1.42
"973",5,73,3,0,0,1.42
"974",5,74,3,1,1,1.42
"975",5,75,3,0,1,1.85
"976",5,76,3,0,1,1.97
"977",5,77,3,1,1,1.3
"978",5,78,3,0,0,1.95
"979",5,79,3,1,1,1.41
"980",5,80,3,1,0,2.83
"981",5,81,3,1,1,1.3
"982",5,82,3,0,1,1.3
"983",5,83,3,1,1,2.72
"984",5,84,3,1,1,1.08
"985",5,85,3,1,1,1.08
"986",5,86,3,0,1,1.2
"987",5,87,3,1,0,1.96
"988",5,88,3,1,0,1.3
"989",5,89,3,1,0,1.52
"990",5,90,3,0,1,1.42
"991",5,91,3,0,1,1.96
"992",5,92,3,0,1,1.42
"993",5,93,3,0,1,1.64
"994",5,94,3,1,1,1.08
"995",5,95,3,1,0,2.5
"996",5,96,3,1,0,1.96
"997",5,97,3,1,1,1.31
"998",5,98,3,0,1,1.74
"999",5,99,3,0,1,1.75
"1000",5,100,3,1,1,2.61
"1001",6,1,2,0,0,4.14
"1002",6,2,2,0,0,3.06
"1003",6,3,2,0,0,2.08
"1004",6,4,2,0,0,1.52
"1005",6,5,2,0,0,3.17
"1006",6,6,2,0,0,2.84
"1007",6,7,2,0,0,2.3
"1008",6,8,2,0,0,2.08
"1009",6,9,2,0,0,1.63
"1010",6,10,2,0,1,1.86
"1011",6,11,2,0,1,2.51
"1012",6,12,2,0,0,2.4
"1013",6,13,2,0,0,1.53
"1014",6,14,2,0,0,4.26
"1015",6,15,2,0,0,1.53
"1016",6,16,2,0,0,1.74
"1017",6,17,2,0,0,2.4
"1018",6,18,2,0,1,1.97
"1019",6,19,2,0,0,1.86
"1020",6,20,2,0,1,1.95
"1021",6,21,2,0,0,1.42
"1022",6,22,2,0,1,1.19
"1023",6,23,2,0,0,1.2
"1024",6,24,2,0,0,1.2
"1025",6,25,2,0,0,1.2
"1026",6,26,2,0,0,1.2
"1027",6,27,2,0,0,1.64
"1028",6,28,2,0,1,1.2
"1029",6,29,2,0,0,2.4
"1030",6,30,2,0,0,2.3
"1031",6,31,2,0,0,1.74
"1032",6,32,2,0,0,1.52
"1033",6,33,2,0,1,1.31
"1034",6,34,2,0,0,1.74
"1035",6,35,2,0,1,4.16
"1036",6,36,2,0,1,1.42
"1037",6,37,2,0,1,3.72
"1038",6,38,2,0,0,1.31
"1039",6,39,2,0,1,0.98
"1040",6,40,2,0,0,1.31
"1041",6,41,2,0,1,1.86
"1042",6,42,2,0,1,4.37
"1043",6,43,2,0,0,1.31
"1044",6,44,2,0,1,1.41
"1045",6,45,2,0,1,1.42
"1046",6,46,2,0,0,0.97
"1047",6,47,2,0,0,2.62
"1048",6,48,2,0,0,2.19
"1049",6,49,2,0,0,1.97
"1050",6,50,2,0,0,2.18
"1051",6,51,2,1,0,4.03
"1052",6,52,2,1,0,1.19
"1053",6,53,2,1,0,1.52
"1054",6,54,2,1,0,1.3
"1055",6,55,2,1,0,1.52
"1056",6,56,2,1,1,1.3
"1057",6,57,2,1,0,1.52
"1058",6,58,2,1,0,1.19
"1059",6,59,2,1,0,5.9
"1060",6,60,2,1,0,1.52
"1061",6,61,2,1,1,1.41
"1062",6,62,2,1,0,2.4
"1063",6,63,2,1,0,1.75
"1064",6,64,2,1,0,1.52
"1065",6,65,2,1,0,1.63
"1066",6,66,2,1,0,1.41
"1067",6,67,2,1,0,1.74
"1068",6,68,2,1,0,1.52
"1069",6,69,2,1,0,1.41
"1070",6,70,2,1,0,1.3
"1071",6,71,2,1,1,2.18
"1072",6,72,2,1,0,1.3
"1073",6,73,2,1,1,2.4
"1074",6,74,2,1,0,1.63
"1075",6,75,2,1,0,1.96
"1076",6,76,2,1,0,1.41
"1077",6,77,2,1,1,5.68
"1078",6,78,2,1,0,1.52
"1079",6,79,2,1,0,1.31
"1080",6,80,2,1,0,1.52
"1081",6,81,2,1,0,1.85
"1082",6,82,2,1,0,1.41
"1083",6,83,2,1,1,1.3
"1084",6,84,2,1,0,2.4
"1085",6,85,2,1,1,3.49
"1086",6,86,2,1,1,3.16
"1087",6,87,2,1,0,1.3
"1088",6,88,2,1,0,1.74
"1089",6,89,2,1,0,1.52
"1090",6,90,2,1,0,1.52
"1091",6,91,2,1,0,1.3
"1092",6,92,2,1,0,1.41
"1093",6,93,2,1,0,1.41
"1094",6,94,2,1,0,1.41
"1095",6,95,2,1,0,1.74
"1096",6,96,2,1,0,2.5
"1097",6,97,2,1,0,1.74
"1098",6,98,2,1,0,1.3
"1099",6,99,2,1,0,5.9
"1100",6,100,2,1,0,2.29
"1101",6,1,3,1,0,1.85
"1102",6,2,3,0,1,1.64
"1103",6,3,3,0,1,2.08
"1104",6,4,3,0,1,2.18
"1105",6,5,3,1,1,1.52
"1106",6,6,3,0,1,2.62
"1107",6,7,3,0,0,1.52
"1108",6,8,3,0,0,1.85
"1109",6,9,3,1,0,2.4
"1110",6,10,3,0,1,1.86
"1111",6,11,3,0,1,2.62
"1112",6,12,3,0,1,0.33
"1113",6,13,3,1,0,3.05
"1114",6,14,3,1,0,1.41
"1115",6,15,3,1,1,1.41
"1116",6,16,3,1,1,1.08
"1117",6,17,3,0,1,1.2
"1118",6,18,3,0,1,1.31
"1119",6,19,3,1,1,5.24
"1120",6,20,3,1,1,0.97
"1121",6,21,3,0,0,1.31
"1122",6,22,3,0,1,1.53
"1123",6,23,3,1,0,1.08
"1124",6,24,3,0,0,1.64
"1125",6,25,3,0,1,1.53
"1126",6,26,3,1,1,1.85
"1127",6,27,3,1,0,1.63
"1128",6,28,3,1,0,1.63
"1129",6,29,3,0,0,2.29
"1130",6,30,3,0,1,1.2
"1131",6,31,3,0,1,1.32
"1132",6,32,3,1,1,1.96
"1133",6,33,3,1,1,0.97
"1134",6,34,3,0,1,2.29
"1135",6,35,3,0,0,2.3
"1136",6,36,3,0,1,1.53
"1137",6,37,3,1,1,1.19
"1138",6,38,3,1,1,1.19
"1139",6,39,3,1,0,2.83
"1140",6,40,3,0,1,1.86
"1141",6,41,3,0,0,1.31
"1142",6,42,3,0,0,2.4
"1143",6,43,3,1,1,1.19
"1144",6,44,3,1,1,0.97
"1145",6,45,3,0,0,2.07
"1146",6,46,3,0,1,1.3
"1147",6,47,3,0,1,3.5
"1148",6,48,3,1,1,1.08
"1149",6,49,3,1,1,4.47
"1150",6,50,3,0,1,1.86
"1151",6,51,3,1,1,3.71
"1152",6,52,3,0,1,1.75
"1153",6,53,3,0,1,1.31
"1154",6,54,3,1,0,2.4
"1155",6,55,3,0,0,2.95
"1156",6,56,3,0,1,1.2
"1157",6,57,3,0,1,2.84
"1158",6,58,3,0,0,1.75
"1159",6,59,3,0,0,2.41
"1160",6,60,3,1,0,1.96
"1161",6,61,3,1,0,1.52
"1162",6,62,3,1,1,0.97
"1163",6,63,3,0,0,3.61
"1164",6,64,3,0,1,1.96
"1165",6,65,3,1,1,1.3
"1166",6,66,3,1,0,1.19
"1167",6,67,3,1,0,1.74
"1168",6,68,3,1,1,0.97
"1169",6,69,3,0,1,2.18
"1170",6,70,3,1,0,2.18
"1171",6,71,3,0,1,1.31
"1172",6,72,3,1,0,2.94
"1173",6,73,3,0,1,1.2
"1174",6,74,3,0,1,1.31
"1175",6,75,3,1,0,1.63
"1176",6,76,3,1,1,1.08
"1177",6,77,3,1,1,1.08
"1178",6,78,3,1,1,1.52
"1179",6,79,3,1,1,1.41
"1180",6,80,3,1,1,1.3
"1181",6,81,3,1,1,1.08
"1182",6,82,3,0,0,2.17
"1183",6,83,3,1,1,2.94
"1184",6,84,3,1,1,1.96
"1185",6,85,3,1,1,1.3
"1186",6,86,3,1,0,1.63
"1187",6,87,3,0,0,1.53
"1188",6,88,3,1,0,1.96
"1189",6,89,3,0,0,1.64
"1190",6,90,3,1,1,1.52
"1191",6,91,3,0,1,2.4
"1192",6,92,3,0,0,1.53
"1193",6,93,3,1,0,1.3
"1194",6,94,3,0,1,1.42
"1195",6,95,3,0,0,1.64
"1196",6,96,3,1,1,1.3
"1197",6,97,3,1,1,2.07
"1198",6,98,3,1,1,1.41
"1199",6,99,3,0,0,1.97
"1200",6,100,3,0,1,3.16
"1201",7,1,3,0,1,6.33
"1202",7,2,3,0,1,3.71
"1203",7,3,3,0,1,4.15
"1204",7,4,3,1,0,2.41
"1205",7,5,3,1,1,1.74
"1206",7,6,3,0,1,3.94
"1207",7,7,3,0,1,1.96
"1208",7,8,3,0,1,6.34
"1209",7,9,3,0,1,1.74
"1210",7,10,3,1,1,1.74
"1211",7,11,3,1,0,5.46
"1212",7,12,3,1,1,2.18
"1213",7,13,3,1,1,0.97
"1214",7,14,3,0,1,2.83
"1215",7,15,3,0,1,4.15
"1216",7,16,3,0,1,1.63
"1217",7,17,3,0,1,2.18
"1218",7,18,3,1,1,2.07
"1219",7,19,3,0,1,3.6
"1220",7,20,3,1,0,2.83
"1221",7,21,3,0,1,2.08
"1222",7,22,3,1,0,2.5
"1223",7,23,3,1,1,1.85
"1224",7,24,3,1,1,1.74
"1225",7,25,3,0,1,5.24
"1226",7,26,3,1,0,3.27
"1227",7,27,3,1,1,1.96
"1228",7,28,3,1,1,1.41
"1229",7,29,3,0,0,4.8
"1230",7,30,3,1,1,1.74
"1231",7,31,3,1,0,1.85
"1232",7,32,3,0,0,3.17
"1233",7,33,3,0,1,3.59
"1234",7,34,3,0,1,3.05
"1235",7,35,3,1,1,3.71
"1236",7,36,3,1,1,1.74
"1237",7,37,3,1,1,1.52
"1238",7,38,3,1,1,2.39
"1239",7,39,3,1,1,1.96
"1240",7,40,3,1,1,1.19
"1241",7,41,3,0,1,3.05
"1242",7,42,3,1,1,2.72
"1243",7,43,3,1,1,1.19
"1244",7,44,3,0,0,2.84
"1245",7,45,3,1,1,1.53
"1246",7,46,3,0,1,7.43
"1247",7,47,3,0,1,2.18
"1248",7,48,3,1,0,1.74
"1249",7,49,3,1,1,0.97
"1250",7,50,3,0,1,3.38
"1251",7,51,3,1,1,1.41
"1252",7,52,3,1,1,0.86
"1253",7,53,3,0,1,3.71
"1254",7,54,3,0,1,2.07
"1255",7,55,3,0,1,1.74
"1256",7,56,3,1,1,2.39
"1257",7,57,3,1,0,1.63
"1258",7,58,3,1,1,3.92
"1259",7,59,3,0,1,3.82
"1260",7,60,3,0,1,2.29
"1261",7,61,3,0,0,1.63
"1262",7,62,3,0,0,3.82
"1263",7,63,3,0,1,1.53
"1264",7,64,3,0,1,4.59
"1265",7,65,3,0,0,3.6
"1266",7,66,3,0,1,2.4
"1267",7,67,3,1,0,1.3
"1268",7,68,3,0,1,6.01
"1269",7,69,3,1,1,2.61
"1270",7,70,3,0,1,2.29
"1271",7,71,3,0,1,5.03
"1272",7,72,3,0,1,2.4
"1273",7,73,3,0,0,2.06
"1274",7,74,3,1,0,1.31
"1275",7,75,3,0,1,1.97
"1276",7,76,3,0,1,2.07
"1277",7,77,3,0,1,4.37
"1278",7,78,3,1,1,1.31
"1279",7,79,3,0,1,1.53
"1280",7,80,3,0,1,2.29
"1281",7,81,3,0,1,1.52
"1282",7,82,3,0,1,2.72
"1283",7,83,3,0,1,1.84
"1284",7,84,3,1,0,2.07
"1285",7,85,3,1,0,6.33
"1286",7,86,3,1,1,2.61
"1287",7,87,3,1,1,0.86
"1288",7,88,3,1,1,1.96
"1289",7,89,3,1,1,1.85
"1290",7,90,3,1,1,2.52
"1291",7,91,3,1,1,1.3
"1292",7,92,3,1,1,2.06
"1293",7,93,3,0,0,4.26
"1294",7,94,3,1,1,2.72
"1295",7,95,3,1,1,1.19
"1296",7,96,3,0,1,1.63
"1297",7,97,3,1,0,1.19
"1298",7,98,3,1,0,1.96
"1299",7,99,3,1,0,5.89
"1300",7,100,3,0,1,5.79
"1301",7,1,1,1,1,1.52
"1302",7,2,1,1,1,1.3
"1303",7,3,1,1,0,1.52
"1304",7,4,1,1,0,2.18
"1305",7,5,1,1,1,2.28
"1306",7,6,1,1,1,2.73
"1307",7,7,1,1,1,0.98
"1308",7,8,1,1,1,3.38
"1309",7,9,1,1,1,1.42
"1310",7,10,1,1,1,0.86
"1311",7,11,1,1,1,1.63
"1312",7,12,1,1,0,2.28
"1313",7,13,1,1,1,1.52
"1314",7,14,1,1,1,1.08
"1315",7,15,1,1,0,2.61
"1316",7,16,1,1,1,1.3
"1317",7,17,1,1,1,0.86
"1318",7,18,1,1,1,2.39
"1319",7,19,1,1,0,3.16
"1320",7,20,1,1,1,1.19
"1321",7,21,1,1,1,2.29
"1322",7,22,1,1,1,1.41
"1323",7,23,1,1,1,1.41
"1324",7,24,1,1,0,2.94
"1325",7,25,1,1,0,1.63
"1326",7,26,1,1,1,6.44
"1327",7,27,1,1,1,1.63
"1328",7,28,1,1,1,1.41
"1329",7,29,1,1,1,3.93
"1330",7,30,1,1,0,2.5
"1331",7,31,1,1,1,1.52
"1332",7,32,1,1,0,9.39
"1333",7,33,1,1,0,4.36
"1334",7,34,1,1,0,1.74
"1335",7,35,1,1,0,3.71
"1336",7,36,1,1,1,1.52
"1337",7,37,1,1,0,2.07
"1338",7,38,1,1,0,1.19
"1339",7,39,1,1,1,1.3
"1340",7,40,1,1,0,2.94
"1341",7,41,1,1,1,1.41
"1342",7,42,1,1,0,1.97
"1343",7,43,1,1,0,3.49
"1344",7,44,1,1,0,1.52
"1345",7,45,1,1,1,1.63
"1346",7,46,1,1,1,2.28
"1347",7,47,1,1,0,1.19
"1348",7,48,1,1,1,4.91
"1349",7,49,1,1,1,1.41
"1350",7,50,1,1,1,1.96
"1351",7,51,1,0,0,2.39
"1352",7,52,1,0,1,1.53
"1353",7,53,1,0,0,2.62
"1354",7,54,1,0,1,3.16
"1355",7,55,1,0,1,5.02
"1356",7,56,1,0,1,3.17
"1357",7,57,1,0,1,4.37
"1358",7,58,1,0,0,2.62
"1359",7,59,1,0,1,1.74
"1360",7,60,1,0,0,4.26
"1361",7,61,1,0,1,1.75
"1362",7,62,1,0,1,1.19
"1363",7,63,1,0,0,5.46
"1364",7,64,1,0,1,1.08
"1365",7,65,1,0,0,3.6
"1366",7,66,1,0,1,2.07
"1367",7,67,1,0,0,1.74
"1368",7,68,1,0,0,2.73
"1369",7,69,1,0,0,2.73
"1370",7,70,1,0,0,4.26
"1371",7,71,1,0,1,2.94
"1372",7,72,1,0,0,5.79
"1373",7,73,1,0,1,3.38
"1374",7,74,1,0,1,2.18
"1375",7,75,1,0,1,3.16
"1376",7,76,1,0,1,2.08
"1377",7,77,1,0,1,1.74
"1378",7,78,1,0,1,1.96
"1379",7,79,1,0,1,1.19
"1380",7,80,1,0,1,4.26
"1381",7,81,1,0,0,0.21
"1382",7,82,1,0,1,5.35
"1383",7,83,1,0,0,1.85
"1384",7,84,1,0,1,2.62
"1385",7,85,1,0,0,2.18
"1386",7,86,1,0,1,4.04
"1387",7,87,1,0,1,3.05
"1388",7,88,1,0,1,3.16
"1389",7,89,1,0,1,2.06
"1390",7,90,1,0,1,4.04
"1391",7,91,1,0,1,3.06
"1392",7,92,1,0,1,3.05
"1393",7,93,1,0,1,2.73
"1394",7,94,1,0,1,1.74
"1395",7,95,1,0,0,3.05
"1396",7,96,1,0,0,2.95
"1397",7,97,1,0,1,4.69
"1398",7,98,1,0,1,7.97
"1399",7,99,1,0,1,2.61
"1400",7,100,1,0,1,1.2
"1401",8,1,3,0,1,3.27
"1402",8,2,3,1,0,2.62
"1403",8,3,3,1,1,1.3
"1404",8,4,3,0,1,1.74
"1405",8,5,3,1,1,1.74
"1406",8,6,3,0,1,1.85
"1407",8,7,3,1,1,1.63
"1408",8,8,3,0,1,2.94
"1409",8,9,3,1,0,1.74
"1410",8,10,3,1,1,1.41
"1411",8,11,3,0,1,1.52
"1412",8,12,3,0,1,1.3
"1413",8,13,3,0,1,1.31
"1414",8,14,3,0,1,1.53
"1415",8,15,3,1,0,2.94
"1416",8,16,3,1,1,1.3
"1417",8,17,3,0,1,1.19
"1418",8,18,3,0,1,1.96
"1419",8,19,3,0,1,1.63
"1420",8,20,3,0,1,4.47
"1421",8,21,3,0,0,3.28
"1422",8,22,3,1,1,2.29
"1423",8,23,3,1,1,4.25
"1424",8,24,3,1,1,2.07
"1425",8,25,3,1,1,1.3
"1426",8,26,3,0,1,3.06
"1427",8,27,3,0,1,1.53
"1428",8,28,3,1,0,5.24
"1429",8,29,3,1,1,1.19
"1430",8,30,3,1,1,5.24
"1431",8,31,3,1,1,1.85
"1432",8,32,3,0,1,1.85
"1433",8,33,3,1,1,3.71
"1434",8,34,3,1,0,1.74
"1435",8,35,3,0,1,1.96
"1436",8,36,3,1,1,1.63
"1437",8,37,3,0,1,2.39
"1438",8,38,3,0,1,1.74
"1439",8,39,3,0,1,1.74
"1440",8,40,3,0,1,2.18
"1441",8,41,3,1,0,4.04
"1442",8,42,3,1,1,1.19
"1443",8,43,3,1,1,1.3
"1444",8,44,3,0,1,1.53
"1445",8,45,3,1,1,2.94
"1446",8,46,3,0,0,1.96
"1447",8,47,3,0,1,2.73
"1448",8,48,3,1,0,1.63
"1449",8,49,3,1,0,1.63
"1450",8,50,3,1,1,2.06
"1451",8,51,3,1,0,2.84
"1452",8,52,3,0,1,1.85
"1453",8,53,3,1,0,2.17
"1454",8,54,3,1,1,3.6
"1455",8,55,3,1,0,3.05
"1456",8,56,3,0,1,1.53
"1457",8,57,3,0,1,1.96
"1458",8,58,3,0,1,2.18
"1459",8,59,3,1,1,1.41
"1460",8,60,3,0,1,2.84
"1461",8,61,3,1,1,2.94
"1462",8,62,3,1,0,1.63
"1463",8,63,3,1,0,2.72
"1464",8,64,3,1,1,1.41
"1465",8,65,3,1,1,2.07
"1466",8,66,3,0,0,2.51
"1467",8,67,3,0,1,1.96
"1468",8,68,3,0,1,1.85
"1469",8,69,3,0,1,1.42
"1470",8,70,3,0,1,2.07
"1471",8,71,3,0,0,1.74
"1472",8,72,3,0,1,1.64
"1473",8,73,3,0,1,7.32
"1474",8,74,3,1,1,2.07
"1475",8,75,3,0,1,1.63
"1476",8,76,3,1,1,5.02
"1477",8,77,3,0,1,1.42
"1478",8,78,3,1,0,1.74
"1479",8,79,3,1,1,5.8
"1480",8,80,3,1,1,3.49
"1481",8,81,3,0,1,3.16
"1482",8,82,3,1,1,2.39
"1483",8,83,3,0,0,1.85
"1484",8,84,3,0,0,1.53
"1485",8,85,3,1,1,1.63
"1486",8,86,3,0,1,3.06
"1487",8,87,3,0,1,2.4
"1488",8,88,3,0,0,4.16
"1489",8,89,3,1,1,2.72
"1490",8,90,3,1,1,1.41
"1491",8,91,3,1,1,2.07
"1492",8,92,3,1,1,1.52
"1493",8,93,3,1,0,3.49
"1494",8,94,3,0,1,7.32
"1495",8,95,3,1,1,1.85
"1496",8,96,3,1,0,2.5
"1497",8,97,3,0,1,2.83
"1498",8,98,3,0,0,2.72
"1499",8,99,3,0,1,1.3
"1500",8,100,3,0,1,2.07
"1501",8,1,2,0,1,4.69
"1502",8,2,2,0,0,2.72
"1503",8,3,2,0,1,1.53
"1504",8,4,2,0,1,1.31
"1505",8,5,2,0,1,2.84
"1506",8,6,2,0,1,3.38
"1507",8,7,2,0,0,2.18
"1508",8,8,2,0,0,2.39
"1509",8,9,2,0,1,2.07
"1510",8,10,2,0,1,1.75
"1511",8,11,2,0,1,1.31
"1512",8,12,2,0,1,1.64
"1513",8,13,2,0,1,1.3
"1514",8,14,2,0,1,1.42
"1515",8,15,2,0,1,1.84
"1516",8,16,2,0,0,1.53
"1517",8,17,2,0,0,1.85
"1518",8,18,2,0,1,1.42
"1519",8,19,2,0,1,1.75
"1520",8,20,2,0,1,1.64
"1521",8,21,2,0,1,1.75
"1522",8,22,2,0,1,3.38
"1523",8,23,2,0,1,1.64
"1524",8,24,2,0,1,2.61
"1525",8,25,2,0,1,1.64
"1526",8,26,2,0,1,1.53
"1527",8,27,2,0,1,3.05
"1528",8,28,2,0,1,1.97
"1529",8,29,2,0,0,3.39
"1530",8,30,2,0,0,1.53
"1531",8,31,2,0,0,3.06
"1532",8,32,2,0,1,1.31
"1533",8,33,2,0,1,3.38
"1534",8,34,2,0,1,1.97
"1535",8,35,2,0,1,1.75
"1536",8,36,2,0,1,1.86
"1537",8,37,2,0,1,3.93
"1538",8,38,2,0,1,1.52
"1539",8,39,2,0,1,2.07
"1540",8,40,2,0,1,1.53
"1541",8,41,2,0,0,1.64
"1542",8,42,2,0,1,1.53
"1543",8,43,2,0,1,2.17
"1544",8,44,2,0,1,1.52
"1545",8,45,2,0,1,2.29
"1546",8,46,2,0,1,2.17
"1547",8,47,2,0,1,2.83
"1548",8,48,2,0,1,1.08
"1549",8,49,2,0,1,1.86
"1550",8,50,2,0,1,1.42
"1551",8,51,2,1,1,4.26
"1552",8,52,2,1,1,1.41
"1553",8,53,2,1,1,1.85
"1554",8,54,2,1,1,1.41
"1555",8,55,2,1,0,6.11
"1556",8,56,2,1,1,1.74
"1557",8,57,2,1,1,1.63
"1558",8,58,2,1,1,1.3
"1559",8,59,2,1,1,3.05
"1560",8,60,2,1,0,2.4
"1561",8,61,2,1,1,1.41
"1562",8,62,2,1,0,1.41
"1563",8,63,2,1,1,1.41
"1564",8,64,2,1,1,1.85
"1565",8,65,2,1,1,3.71
"1566",8,66,2,1,1,2.07
"1567",8,67,2,1,1,2.61
"1568",8,68,2,1,1,2.07
"1569",8,69,2,1,0,1.85
"1570",8,70,2,1,1,1.41
"1571",8,71,2,1,0,1.63
"1572",8,72,2,1,1,3.05
"1573",8,73,2,1,1,1.86
"1574",8,74,2,1,0,2.18
"1575",8,75,2,1,0,5.9
"1576",8,76,2,1,1,1.63
"1577",8,77,2,1,1,2.4
"1578",8,78,2,1,1,3.38
"1579",8,79,2,1,1,1.96
"1580",8,80,2,1,1,2.07
"1581",8,81,2,1,1,2.72
"1582",8,82,2,1,1,4.92
"1583",8,83,2,1,0,2.39
"1584",8,84,2,1,1,7.21
"1585",8,85,2,1,1,1.74
"1586",8,86,2,1,1,6
"1587",8,87,2,1,1,1.3
"1588",8,88,2,1,1,1.63
"1589",8,89,2,1,0,3.16
"1590",8,90,2,1,0,2.07
"1591",8,91,2,1,1,2.94
"1592",8,92,2,1,1,2.18
"1593",8,93,2,1,1,2.18
"1594",8,94,2,1,1,3.71
"1595",8,95,2,1,1,1.74
"1596",8,96,2,1,1,3.27
"1597",8,97,2,1,1,2.28
"1598",8,98,2,1,1,1.52
"1599",8,99,2,1,1,2.94
"1600",8,100,2,1,1,1.74
"1601",9,1,1,1,1,2.51
"1602",9,2,1,1,1,1.41
"1603",9,3,1,1,0,2.39
"1604",9,4,1,1,1,2.72
"1605",9,5,1,1,1,2.39
"1606",9,6,1,1,1,1.63
"1607",9,7,1,1,1,4.14
"1608",9,8,1,1,1,2.28
"1609",9,9,1,1,1,1.63
"1610",9,10,1,1,1,1.41
"1611",9,11,1,1,1,2.39
"1612",9,12,1,1,1,2.5
"1613",9,13,1,1,0,1.63
"1614",9,14,1,1,0,4.8
"1615",9,15,1,1,1,1.08
"1616",9,16,1,1,1,1.96
"1617",9,17,1,1,0,1.08
"1618",9,18,1,1,1,2.39
"1619",9,19,1,1,0,2.18
"1620",9,20,1,1,0,2.72
"1621",9,21,1,1,0,1.85
"1622",9,22,1,1,1,2.94
"1623",9,23,1,1,0,1.08
"1624",9,24,1,1,1,3.82
"1625",9,25,1,1,1,1.74
"1626",9,26,1,1,1,1.19
"1627",9,27,1,1,0,1.19
"1628",9,28,1,1,1,0.86
"1629",9,29,1,1,1,1.41
"1630",9,30,1,1,1,1.3
"1631",9,31,1,1,0,1.85
"1632",9,32,1,1,1,3.27
"1633",9,33,1,1,0,1.74
"1634",9,34,1,1,1,1.63
"1635",9,35,1,1,1,1.64
"1636",9,36,1,1,1,1.08
"1637",9,37,1,1,1,2.07
"1638",9,38,1,1,1,2.06
"1639",9,39,1,1,1,1.63
"1640",9,40,1,1,1,1.64
"1641",9,41,1,1,1,1.63
"1642",9,42,1,1,0,1.53
"1643",9,43,1,1,1,1.52
"1644",9,44,1,1,0,2.28
"1645",9,45,1,1,1,1.63
"1646",9,46,1,1,1,2.5
"1647",9,47,1,1,1,2.18
"1648",9,48,1,1,0,2.94
"1649",9,49,1,1,0,1.52
"1650",9,50,1,1,1,1.3
"1651",9,51,1,0,0,2.73
"1652",9,52,1,0,1,1.63
"1653",9,53,1,0,1,1.74
"1654",9,54,1,0,1,1.41
"1655",9,55,1,0,1,1.97
"1656",9,56,1,0,1,1.53
"1657",9,57,1,0,1,1.52
"1658",9,58,1,0,1,1.85
"1659",9,59,1,0,1,1.63
"1660",9,60,1,0,1,2.07
"1661",9,61,1,0,1,1.2
"1662",9,62,1,0,0,1.42
"1663",9,63,1,0,1,3.05
"1664",9,64,1,0,0,1.64
"1665",9,65,1,0,1,2.51
"1666",9,66,1,0,1,2.07
"1667",9,67,1,0,1,1.42
"1668",9,68,1,0,0,2.83
"1669",9,69,1,0,1,1.3
"1670",9,70,1,0,1,2.94
"1671",9,71,1,0,1,1.41
"1672",9,72,1,0,1,1.63
"1673",9,73,1,0,0,1.74
"1674",9,74,1,0,1,1.52
"1675",9,75,1,0,1,1.42
"1676",9,76,1,0,1,1.31
"1677",9,77,1,0,0,1.64
"1678",9,78,1,0,0,1.42
"1679",9,79,1,0,1,1.63
"1680",9,80,1,0,1,2.51
"1681",9,81,1,0,1,1.41
"1682",9,82,1,0,1,2.29
"1683",9,83,1,0,1,1.31
"1684",9,84,1,0,1,1.53
"1685",9,85,1,0,1,2.08
"1686",9,86,1,0,1,1.3
"1687",9,87,1,0,1,1.96
"1688",9,88,1,0,1,1.3
"1689",9,89,1,0,1,1.2
"1690",9,90,1,0,1,1.96
"1691",9,91,1,0,1,1.63
"1692",9,92,1,0,1,2.5
"1693",9,93,1,0,1,3.82
"1694",9,94,1,0,0,2.07
"1695",9,95,1,0,1,2.07
"1696",9,96,1,0,1,3.27
"1697",9,97,1,0,1,2.07
"1698",9,98,1,0,0,1.96
"1699",9,99,1,0,1,1.63
"1700",9,100,1,0,1,1.74
"1701",9,1,3,1,0,1.85
"1702",9,2,3,1,1,1.52
"1703",9,3,3,1,0,1.41
"1704",9,4,3,1,1,2.07
"1705",9,5,3,0,1,2.4
"1706",9,6,3,1,1,2.94
"1707",9,7,3,1,0,1.08
"1708",9,8,3,1,1,1.19
"1709",9,9,3,1,1,2.39
"1710",9,10,3,1,1,1.74
"1711",9,11,3,1,0,1.63
"1712",9,12,3,0,1,2.5
"1713",9,13,3,1,0,1.53
"1714",9,14,3,1,0,1.52
"1715",9,15,3,1,0,1.41
"1716",9,16,3,0,1,2.5
"1717",9,17,3,0,1,1.53
"1718",9,18,3,0,1,1.85
"1719",9,19,3,0,1,1.85
"1720",9,20,3,1,0,1.3
"1721",9,21,3,1,1,1.96
"1722",9,22,3,1,1,2.28
"1723",9,23,3,0,1,2.62
"1724",9,24,3,1,1,1.41
"1725",9,25,3,1,0,1.3
"1726",9,26,3,1,0,1.96
"1727",9,27,3,0,1,1.85
"1728",9,28,3,1,1,0.97
"1729",9,29,3,1,1,2.39
"1730",9,30,3,0,1,2.07
"1731",9,31,3,0,1,1.96
"1732",9,32,3,1,0,2.17
"1733",9,33,3,0,1,1.52
"1734",9,34,3,0,1,1.19
"1735",9,35,3,1,1,1.41
"1736",9,36,3,0,1,2.51
"1737",9,37,3,0,0,1.63
"1738",9,38,3,0,1,1.31
"1739",9,39,3,0,1,1.09
"1740",9,40,3,1,1,1.19
"1741",9,41,3,1,1,1.52
"1742",9,42,3,1,1,1.3
"1743",9,43,3,0,1,1.31
"1744",9,44,3,0,1,1.85
"1745",9,45,3,1,1,3.16
"1746",9,46,3,0,0,1.64
"1747",9,47,3,0,1,1.85
"1748",9,48,3,0,1,0.21
"1749",9,49,3,0,1,2.18
"1750",9,50,3,0,1,1.63
"1751",9,51,3,1,0,2.08
"1752",9,52,3,1,1,1.63
"1753",9,53,3,1,1,3.27
"1754",9,54,3,0,1,1.74
"1755",9,55,3,0,1,1.74
"1756",9,56,3,0,1,1.52
"1757",9,57,3,1,1,1.52
"1758",9,58,3,0,1,1.52
"1759",9,59,3,0,0,1.08
"1760",9,60,3,0,1,2.84
"1761",9,61,3,1,1,1.74
"1762",9,62,3,1,1,1.19
"1763",9,63,3,0,0,1.52
"1764",9,64,3,0,1,2.51
"1765",9,65,3,1,1,1.41
"1766",9,66,3,1,1,2.94
"1767",9,67,3,0,1,1.63
"1768",9,68,3,1,1,0.97
"1769",9,69,3,1,1,1.63
"1770",9,70,3,0,1,1.96
"1771",9,71,3,0,0,1.64
"1772",9,72,3,1,1,1.19
"1773",9,73,3,1,0,1.63
"1774",9,74,3,0,0,1.52
"1775",9,75,3,0,0,1.41
"1776",9,76,3,1,0,1.3
"1777",9,77,3,1,0,1.19
"1778",9,78,3,0,1,1.64
"1779",9,79,3,1,1,2.83
"1780",9,80,3,0,1,1.41
"1781",9,81,3,1,1,0.86
"1782",9,82,3,1,0,1.96
"1783",9,83,3,0,1,1.41
"1784",9,84,3,0,1,1.52
"1785",9,85,3,0,0,1.08
"1786",9,86,3,0,1,1.63
"1787",9,87,3,1,1,1.74
"1788",9,88,3,1,1,1.41
"1789",9,89,3,1,1,1.19
"1790",9,90,3,0,1,2.18
"1791",9,91,3,0,1,1.97
"1792",9,92,3,0,0,1.41
"1793",9,93,3,0,1,2.18
"1794",9,94,3,1,1,2.29
"1795",9,95,3,0,1,1.41
"1796",9,96,3,1,1,3.38
"1797",9,97,3,0,1,2.51
"1798",9,98,3,0,1,1.96
"1799",9,99,3,0,0,1.53
"1800",9,100,3,1,1,1.08
"1801",10,1,2,0,1,3.17
"1802",10,2,2,0,1,1.74
"1803",10,3,2,0,1,5.13
"1804",10,4,2,0,0,2.51
"1805",10,5,2,0,1,1.85
"1806",10,6,2,0,1,1.96
"1807",10,7,2,0,1,1.42
"1808",10,8,2,0,0,4.26
"1809",10,9,2,0,1,2.18
"1810",10,10,2,0,0,9.73
"1811",10,11,2,0,0,3.49
"1812",10,12,2,0,1,13.7
"1813",10,13,2,0,0,2.73
"1814",10,14,2,0,1,2.73
"1815",10,15,2,0,1,1.96
"1816",10,16,2,0,1,1.86
"1817",10,17,2,0,1,1.86
"1818",10,18,2,0,1,2.4
"1819",10,19,2,0,1,1.52
"1820",10,20,2,0,1,23.6
"1821",10,21,2,0,0,4.48
"1822",10,22,2,0,1,3.17
"1823",10,23,2,0,0,7.76
"1824",10,24,2,0,1,1.53
"1825",10,25,2,0,0,11.9
"1826",10,26,2,0,1,4.81
"1827",10,27,2,0,1,2.73
"1828",10,28,2,0,0,10.1
"1829",10,29,2,0,1,2.62
"1830",10,30,2,0,1,3.39
"1831",10,31,2,0,1,2.28
"1832",10,32,2,0,1,1.63
"1833",10,33,2,0,1,6.89
"1834",10,34,2,0,1,3.06
"1835",10,35,2,0,1,7.21
"1836",10,36,2,0,1,5.9
"1837",10,37,2,0,1,4.16
"1838",10,38,2,0,0,3.16
"1839",10,39,2,0,1,4.37
"1840",10,40,2,0,1,5.57
"1841",10,41,2,0,1,4.59
"1842",10,42,2,0,1,1.53
"1843",10,43,2,0,0,2.62
"1844",10,44,2,0,1,1.74
"1845",10,45,2,0,1,6.12
"1846",10,46,2,0,1,1.86
"1847",10,47,2,0,1,3.16
"1848",10,48,2,0,1,3.82
"1849",10,49,2,0,1,13.6
"1850",10,50,2,0,1,2.62
"1851",10,51,2,1,1,9.07
"1852",10,52,2,1,1,1.41
"1853",10,53,2,1,1,1.85
"1854",10,54,2,1,1,2.41
"1855",10,55,2,1,1,1.85
"1856",10,56,2,1,1,1.74
"1857",10,57,2,1,1,1.3
"1858",10,58,2,1,0,10.1
"1859",10,59,2,1,1,1.08
"1860",10,60,2,1,1,2.61
"1861",10,61,2,1,1,2.07
"1862",10,62,2,1,1,2.72
"1863",10,63,2,1,1,1.96
"1864",10,64,2,1,1,7.21
"1865",10,65,2,1,1,1.19
"1866",10,66,2,1,1,2.17
"1867",10,67,2,1,1,2.06
"1868",10,68,2,1,1,3.38
"1869",10,69,2,1,0,10.3
"1870",10,70,2,1,1,1.74
"1871",10,71,2,1,0,9.18
"1872",10,72,2,1,1,7.54
"1873",10,73,2,1,0,10.1
"1874",10,74,2,1,1,3.72
"1875",10,75,2,1,1,3.27
"1876",10,76,2,1,1,2.72
"1877",10,77,2,1,1,8.41
"1878",10,78,2,1,1,1.85
"1879",10,79,2,1,1,5.68
"1880",10,80,2,1,1,1.96
"1881",10,81,2,1,0,2.4
"1882",10,82,2,1,1,10.6
"1883",10,83,2,1,1,2.72
"1884",10,84,2,1,1,1.96
"1885",10,85,2,1,1,1.74
"1886",10,86,2,1,1,1.3
"1887",10,87,2,1,1,5.02
"1888",10,88,2,1,1,2.4
"1889",10,89,2,1,1,23.7
"1890",10,90,2,1,0,1.63
"1891",10,91,2,1,1,2.39
"1892",10,92,2,1,1,1.85
"1893",10,93,2,1,1,4.47
"1894",10,94,2,1,1,6
"1895",10,95,2,1,1,2.94
"1896",10,96,2,1,0,8.96
"1897",10,97,2,1,1,1.52
"1898",10,98,2,1,1,8.19
"1899",10,99,2,1,1,3.71
"1900",10,100,2,1,0,3.49
"1901",10,1,3,1,0,6.01
"1902",10,2,3,0,1,2.4
"1903",10,3,3,1,1,1.52
"1904",10,4,3,0,0,3.5
"1905",10,5,3,1,1,3.16
"1906",10,6,3,0,1,4.16
"1907",10,7,3,1,1,2.83
"1908",10,8,3,0,1,2.07
"1909",10,9,3,1,1,2.17
"1910",10,10,3,1,1,3.16
"1911",10,11,3,0,1,3.17
"1912",10,12,3,1,1,1.52
"1913",10,13,3,1,1,1.63
"1914",10,14,3,1,1,2.17
"1915",10,15,3,0,1,5.46
"1916",10,16,3,1,1,5.56
"1917",10,17,3,0,1,3.06
"1918",10,18,3,0,1,2.84
"1919",10,19,3,0,1,2.18
"1920",10,20,3,0,0,3.06
"1921",10,21,3,0,1,2.18
"1922",10,22,3,0,1,2.19
"1923",10,23,3,1,1,1.41
"1924",10,24,3,1,1,2.07
"1925",10,25,3,0,1,4.59
"1926",10,26,3,0,1,2.18
"1927",10,27,3,1,1,1.41
"1928",10,28,3,1,1,1.3
"1929",10,29,3,0,0,4.48
"1930",10,30,3,1,1,17.9
"1931",10,31,3,1,1,1.96
"1932",10,32,3,0,1,4.26
"1933",10,33,3,0,1,2.84
"1934",10,34,3,1,1,3.38
"1935",10,35,3,1,1,4.25
"1936",10,36,3,0,1,5.25
"1937",10,37,3,0,1,1.63
"1938",10,38,3,0,1,2.73
"1939",10,39,3,0,1,4.69
"1940",10,40,3,1,1,1.74
"1941",10,41,3,0,1,4.05
"1942",10,42,3,1,1,1.63
"1943",10,43,3,0,1,1.86
"1944",10,44,3,1,0,2.83
"1945",10,45,3,1,1,3.16
"1946",10,46,3,0,1,4.37
"1947",10,47,3,0,1,2.07
"1948",10,48,3,1,1,2.29
"1949",10,49,3,0,1,1.97
"1950",10,50,3,0,1,2.62
"1951",10,51,3,0,1,1.52
"1952",10,52,3,1,1,2.18
"1953",10,53,3,0,1,3.17
"1954",10,54,3,1,1,4.15
"1955",10,55,3,0,1,5.02
"1956",10,56,3,1,1,1.3
"1957",10,57,3,1,1,2.5
"1958",10,58,3,1,1,1.63
"1959",10,59,3,0,1,2.84
"1960",10,60,3,0,1,1.97
"1961",10,61,3,1,1,1.96
"1962",10,62,3,0,1,2.84
"1963",10,63,3,0,1,2.62
"1964",10,64,3,1,1,1.96
"1965",10,65,3,0,1,7
"1966",10,66,3,1,1,2.4
"1967",10,67,3,1,1,1.52
"1968",10,68,3,1,1,1.41
"1969",10,69,3,0,1,2.51
"1970",10,70,3,0,1,2.08
"1971",10,71,3,1,1,2.18
"1972",10,72,3,1,1,1.96
"1973",10,73,3,0,1,6.01
"1974",10,74,3,1,1,1.96
"1975",10,75,3,0,1,2.62
"1976",10,76,3,1,1,15.1
"1977",10,77,3,1,1,1.85
"1978",10,78,3,1,1,1.96
"1979",10,79,3,1,1,0.97
"1980",10,80,3,0,1,2.51
"1981",10,81,3,1,1,5.02
"1982",10,82,3,1,1,2.29
"1983",10,83,3,1,1,7.31
"1984",10,84,3,0,1,2.83
"1985",10,85,3,1,1,4.25
"1986",10,86,3,1,1,1.52
"1987",10,87,3,0,1,6.88
"1988",10,88,3,1,1,2.07
"1989",10,89,3,0,1,10.3
"1990",10,90,3,1,1,1.85
"1991",10,91,3,0,1,2.4
"1992",10,92,3,1,1,1.74
"1993",10,93,3,1,1,2.5
"1994",10,94,3,0,1,1.85
"1995",10,95,3,0,0,4.15
"1996",10,96,3,1,1,1.63
"1997",10,97,3,0,1,9.41
"1998",10,98,3,0,1,1.86
"1999",10,99,3,0,1,3.59
"2000",10,100,3,0,1,3.82
"2001",11,1,3,0,1,4.26
"2002",11,2,3,1,1,3.06
"2003",11,3,3,0,1,3.49
"2004",11,4,3,0,1,1.63
"2005",11,5,3,0,1,4.26
"2006",11,6,3,1,1,5.24
"2007",11,7,3,1,1,3.05
"2008",11,8,3,0,1,1.96
"2009",11,9,3,1,1,1.74
"2010",11,10,3,1,0,3.27
"2011",11,11,3,0,1,1.19
"2012",11,12,3,0,1,1.85
"2013",11,13,3,1,1,7.66
"2014",11,14,3,1,1,1.3
"2015",11,15,3,1,1,1.3
"2016",11,16,3,0,1,1.96
"2017",11,17,3,0,1,1.41
"2018",11,18,3,0,1,3.05
"2019",11,19,3,1,1,3.49
"2020",11,20,3,0,1,2.18
"2021",11,21,3,0,1,2.62
"2022",11,22,3,0,0,2.29
"2023",11,23,3,1,1,1.74
"2024",11,24,3,0,1,1.08
"2025",11,25,3,0,1,1.85
"2026",11,26,3,1,1,1.3
"2027",11,27,3,1,1,1.52
"2028",11,28,3,1,1,11.7
"2029",11,29,3,0,0,1.85
"2030",11,30,3,0,0,4.04
"2031",11,31,3,0,1,1.64
"2032",11,32,3,1,1,1.75
"2033",11,33,3,0,1,3.39
"2034",11,34,3,1,1,2.07
"2035",11,35,3,1,1,1.63
"2036",11,36,3,1,1,2.61
"2037",11,37,3,0,0,1.74
"2038",11,38,3,1,1,2.51
"2039",11,39,3,1,1,4.25
"2040",11,40,3,1,0,2.08
"2041",11,41,3,1,1,0.97
"2042",11,42,3,0,0,4.26
"2043",11,43,3,1,0,3.05
"2044",11,44,3,1,0,1.52
"2045",11,45,3,0,1,1.85
"2046",11,46,3,0,1,3.39
"2047",11,47,3,0,0,2.07
"2048",11,48,3,1,1,2.72
"2049",11,49,3,1,1,3.93
"2050",11,50,3,1,1,1.52
"2051",11,51,3,0,1,2.18
"2052",11,52,3,0,1,2.07
"2053",11,53,3,1,0,2.94
"2054",11,54,3,1,1,2.94
"2055",11,55,3,0,1,5.36
"2056",11,56,3,0,1,2.51
"2057",11,57,3,1,1,1.19
"2058",11,58,3,0,0,4.47
"2059",11,59,3,0,1,1.63
"2060",11,60,3,1,1,1.53
"2061",11,61,3,0,0,6.88
"2062",11,62,3,0,0,1.96
"2063",11,63,3,0,1,1.74
"2064",11,64,3,1,0,3.93
"2065",11,65,3,0,1,5.79
"2066",11,66,3,0,1,3.81
"2067",11,67,3,0,1,2.61
"2068",11,68,3,1,0,1.63
"2069",11,69,3,1,1,1.08
"2070",11,70,3,1,1,2.06
"2071",11,71,3,0,1,2.84
"2072",11,72,3,1,0,1.75
"2073",11,73,3,0,1,2.07
"2074",11,74,3,1,1,1.85
"2075",11,75,3,1,1,2.94
"2076",11,76,3,0,1,2.62
"2077",11,77,3,1,0,2.07
"2078",11,78,3,0,1,4.47
"2079",11,79,3,0,0,2.72
"2080",11,80,3,1,1,5.13
"2081",11,81,3,1,1,1.41
"2082",11,82,3,1,0,2.29
"2083",11,83,3,1,0,1.85
"2084",11,84,3,0,1,2.73
"2085",11,85,3,1,0,2.39
"2086",11,86,3,1,1,2.07
"2087",11,87,3,1,0,1.85
"2088",11,88,3,0,1,3.6
"2089",11,89,3,0,1,2.73
"2090",11,90,3,0,1,2.18
"2091",11,91,3,1,0,3.38
"2092",11,92,3,1,1,5.35
"2093",11,93,3,0,1,3.82
"2094",11,94,3,1,0,2.28
"2095",11,95,3,1,1,1.41
"2096",11,96,3,0,1,2.72
"2097",11,97,3,0,1,7.31
"2098",11,98,3,0,1,1.96
"2099",11,99,3,0,1,1.42
"2100",11,100,3,1,0,2.29
"2101",11,1,1,1,0,2.51
"2102",11,2,1,1,1,2.18
"2103",11,3,1,1,1,2.07
"2104",11,4,1,1,1,1.63
"2105",11,5,1,1,1,1.63
"2106",11,6,1,1,0,1.85
"2107",11,7,1,1,1,2.84
"2108",11,8,1,1,1,3.92
"2109",11,9,1,1,0,1.74
"2110",11,10,1,1,1,1.85
"2111",11,11,1,1,1,1.74
"2112",11,12,1,1,1,1.19
"2113",11,13,1,1,1,5.68
"2114",11,14,1,1,0,2.18
"2115",11,15,1,1,0,2.18
"2116",11,16,1,1,1,1.08
"2117",11,17,1,1,1,1.52
"2118",11,18,1,1,1,2.83
"2119",11,19,1,1,1,3.6
"2120",11,20,1,1,1,1.41
"2121",11,21,1,1,1,1.52
"2122",11,22,1,1,0,2.06
"2123",11,23,1,1,1,2.07
"2124",11,24,1,1,1,1.08
"2125",11,25,1,1,1,4.81
"2126",11,26,1,1,1,1.52
"2127",11,27,1,1,1,3.6
"2128",11,28,1,1,1,1.19
"2129",11,29,1,1,1,1.63
"2130",11,30,1,1,1,1.96
"2131",11,31,1,1,0,1.74
"2132",11,32,1,1,1,1.85
"2133",11,33,1,1,1,5.02
"2134",11,34,1,1,1,1.96
"2135",11,35,1,1,1,1.41
"2136",11,36,1,1,0,1.74
"2137",11,37,1,1,1,1.3
"2138",11,38,1,1,1,2.07
"2139",11,39,1,1,1,1.52
"2140",11,40,1,1,1,1.3
"2141",11,41,1,1,1,1.3
"2142",11,42,1,1,1,1.41
"2143",11,43,1,1,1,2.07
"2144",11,44,1,1,1,1.52
"2145",11,45,1,1,0,1.85
"2146",11,46,1,1,0,3.05
"2147",11,47,1,1,1,3.16
"2148",11,48,1,1,1,3.27
"2149",11,49,1,1,1,1.41
"2150",11,50,1,1,1,1.52
"2151",11,51,1,0,1,2.51
"2152",11,52,1,0,0,3.16
"2153",11,53,1,0,1,1.41
"2154",11,54,1,0,0,7.21
"2155",11,55,1,0,1,2.51
"2156",11,56,1,0,0,3.06
"2157",11,57,1,0,1,1.85
"2158",11,58,1,0,1,2.29
"2159",11,59,1,0,0,1.96
"2160",11,60,1,0,0,4.7
"2161",11,61,1,0,1,2.73
"2162",11,62,1,0,1,2.4
"2163",11,63,1,0,1,2.4
"2164",11,64,1,0,1,1.64
"2165",11,65,1,0,1,3.27
"2166",11,66,1,0,1,2.07
"2167",11,67,1,0,1,2.4
"2168",11,68,1,0,0,3.71
"2169",11,69,1,0,1,1.85
"2170",11,70,1,0,1,2.18
"2171",11,71,1,0,1,4.04
"2172",11,72,1,0,1,4.7
"2173",11,73,1,0,1,1.64
"2174",11,74,1,0,1,1.85
"2175",11,75,1,0,0,4.59
"2176",11,76,1,0,0,3.49
"2177",11,77,1,0,1,3.38
"2178",11,78,1,0,1,1.63
"2179",11,79,1,0,0,6.66
"2180",11,80,1,0,1,2.83
"2181",11,81,1,0,0,2.62
"2182",11,82,1,0,1,3.27
"2183",11,83,1,0,1,2.61
"2184",11,84,1,0,1,4.04
"2185",11,85,1,0,1,2.07
"2186",11,86,1,0,1,1.96
"2187",11,87,1,0,1,2.51
"2188",11,88,1,0,1,1.53
"2189",11,89,1,0,1,1.85
"2190",11,90,1,0,1,2.07
"2191",11,91,1,0,1,4.25
"2192",11,92,1,0,1,4.04
"2193",11,93,1,0,1,2.08
"2194",11,94,1,0,1,2.18
"2195",11,95,1,0,0,2.18
"2196",11,96,1,0,1,2.07
"2197",11,97,1,0,0,4.15
"2198",11,98,1,0,1,2.07
"2199",11,99,1,0,1,1.63
"2200",11,100,1,0,1,3.06
"2201",12,1,3,1,0,1.85
"2202",12,2,3,1,1,1.97
"2203",12,3,3,1,1,2.18
"2204",12,4,3,1,1,1.3
"2205",12,5,3,0,1,1.85
"2206",12,6,3,0,1,1.53
"2207",12,7,3,0,1,1.41
"2208",12,8,3,0,1,2.62
"2209",12,9,3,1,1,3.05
"2210",12,10,3,1,1,1.3
"2211",12,11,3,0,1,7.32
"2212",12,12,3,1,1,1.96
"2213",12,13,3,1,0,3.16
"2214",12,14,3,0,1,2.29
"2215",12,15,3,0,1,1.74
"2216",12,16,3,0,1,2.73
"2217",12,17,3,0,1,2.07
"2218",12,18,3,0,1,2.18
"2219",12,19,3,1,1,2.18
"2220",12,20,3,1,1,1.85
"2221",12,21,3,0,1,2.73
"2222",12,22,3,0,1,2.94
"2223",12,23,3,1,0,1.63
"2224",12,24,3,0,0,4.48
"2225",12,25,3,1,1,2.07
"2226",12,26,3,1,1,1.85
"2227",12,27,3,1,0,2.07
"2228",12,28,3,1,1,1.63
"2229",12,29,3,1,1,1.52
"2230",12,30,3,1,1,1.19
"2231",12,31,3,0,1,2.3
"2232",12,32,3,0,0,3.82
"2233",12,33,3,0,1,2.07
"2234",12,34,3,1,1,1.19
"2235",12,35,3,0,0,2.62
"2236",12,36,3,1,1,2.4
"2237",12,37,3,0,1,2.83
"2238",12,38,3,0,1,1.75
"2239",12,39,3,0,0,4.48
"2240",12,40,3,1,0,1.52
"2241",12,41,3,0,1,3.39
"2242",12,42,3,1,1,1.74
"2243",12,43,3,0,1,2.06
"2244",12,44,3,1,0,1.41
"2245",12,45,3,0,1,5.58
"2246",12,46,3,0,1,3.82
"2247",12,47,3,0,0,3.49
"2248",12,48,3,0,1,2.73
"2249",12,49,3,0,1,2.84
"2250",12,50,3,0,1,2.4
"2251",12,51,3,1,0,1.3
"2252",12,52,3,1,1,3.6
"2253",12,53,3,1,0,3.16
"2254",12,54,3,0,1,2.19
"2255",12,55,3,0,1,2.18
"2256",12,56,3,1,1,2.5
"2257",12,57,3,1,1,5.57
"2258",12,58,3,0,0,1.96
"2259",12,59,3,1,0,2.61
"2260",12,60,3,0,1,3.17
"2261",12,61,3,1,1,1.41
"2262",12,62,3,1,0,2.5
"2263",12,63,3,0,1,3.82
"2264",12,64,3,0,1,2.4
"2265",12,65,3,0,1,3.49
"2266",12,66,3,0,1,2.18
"2267",12,67,3,1,1,1.86
"2268",12,68,3,1,1,1.19
"2269",12,69,3,1,1,3.49
"2270",12,70,3,1,0,1.63
"2271",12,71,3,1,1,1.85
"2272",12,72,3,1,1,1.53
"2273",12,73,3,1,1,0.97
"2274",12,74,3,0,1,2.51
"2275",12,75,3,0,0,1.96
"2276",12,76,3,0,1,1.97
"2277",12,77,3,1,0,1.96
"2278",12,78,3,0,1,3.72
"2279",12,79,3,1,1,2.72
"2280",12,80,3,0,0,1.97
"2281",12,81,3,1,0,1.85
"2282",12,82,3,0,1,2.4
"2283",12,83,3,1,0,3.82
"2284",12,84,3,1,1,1.19
"2285",12,85,3,1,1,1.74
"2286",12,86,3,0,1,6.78
"2287",12,87,3,0,1,2.4
"2288",12,88,3,0,1,2.07
"2289",12,89,3,1,1,2.39
"2290",12,90,3,1,1,1.74
"2291",12,91,3,0,1,3.93
"2292",12,92,3,1,0,4.91
"2293",12,93,3,0,1,3.17
"2294",12,94,3,0,1,2.07
"2295",12,95,3,1,0,5.45
"2296",12,96,3,1,1,1.09
"2297",12,97,3,0,1,3.38
"2298",12,98,3,1,0,6.22
"2299",12,99,3,0,1,2.84
"2300",12,100,3,1,1,2.94
"2301",12,1,2,0,1,3.39
"2302",12,2,2,0,1,2.4
"2303",12,3,2,0,1,2.51
"2304",12,4,2,0,0,2.95
"2305",12,5,2,0,1,2.84
"2306",12,6,2,0,1,2.07
"2307",12,7,2,0,1,1.42
"2308",12,8,2,0,0,2.4
"2309",12,9,2,0,0,2.4
"2310",12,10,2,0,1,2.29
"2311",12,11,2,0,0,2.4
"2312",12,12,2,0,1,3.5
"2313",12,13,2,0,1,1.75
"2314",12,14,2,0,1,6
"2315",12,15,2,0,1,3.06
"2316",12,16,2,0,0,4.7
"2317",12,17,2,0,1,1.31
"2318",12,18,2,0,1,3.17
"2319",12,19,2,0,0,1.42
"2320",12,20,2,0,0,3.93
"2321",12,21,2,0,1,3.61
"2322",12,22,2,0,1,1.64
"2323",12,23,2,0,0,6.23
"2324",12,24,2,0,1,2.84
"2325",12,25,2,0,1,2.18
"2326",12,26,2,0,1,3.5
"2327",12,27,2,0,0,4.03
"2328",12,28,2,0,1,2.73
"2329",12,29,2,0,0,2.28
"2330",12,30,2,0,1,2.18
"2331",12,31,2,0,1,4.15
"2332",12,32,2,0,1,5.47
"2333",12,33,2,0,1,3.17
"2334",12,34,2,0,0,6.56
"2335",12,35,2,0,1,2.51
"2336",12,36,2,0,0,4.92
"2337",12,37,2,0,1,6.78
"2338",12,38,2,0,0,2.84
"2339",12,39,2,0,1,4.81
"2340",12,40,2,0,1,1.64
"2341",12,41,2,0,1,5.47
"2342",12,42,2,0,1,5.47
"2343",12,43,2,0,1,3.28
"2344",12,44,2,0,1,5.47
"2345",12,45,2,0,1,1.85
"2346",12,46,2,0,1,3.27
"2347",12,47,2,0,0,2.51
"2348",12,48,2,0,0,5.14
"2349",12,49,2,0,1,6.67
"2350",12,50,2,0,1,2.51
"2351",12,51,2,1,1,4.58
"2352",12,52,2,1,0,1.52
"2353",12,53,2,1,1,1.63
"2354",12,54,2,1,1,1.74
"2355",12,55,2,1,0,1.74
"2356",12,56,2,1,1,1.3
"2357",12,57,2,1,1,1.52
"2358",12,58,2,1,1,1.96
"2359",12,59,2,1,1,1.3
"2360",12,60,2,1,1,1.63
"2361",12,61,2,1,1,1.52
"2362",12,62,2,1,1,1.3
"2363",12,63,2,1,0,3.05
"2364",12,64,2,1,1,1.52
"2365",12,65,2,1,1,1.41
"2366",12,66,2,1,1,2.28
"2367",12,67,2,1,0,4.91
"2368",12,68,2,1,1,2.07
"2369",12,69,2,1,1,1.52
"2370",12,70,2,1,0,2.29
"2371",12,71,2,1,1,2.18
"2372",12,72,2,1,1,2.61
"2373",12,73,2,1,1,4.8
"2374",12,74,2,1,1,1.3
"2375",12,75,2,1,0,2.5
"2376",12,76,2,1,1,2.83
"2377",12,77,2,1,1,2.19
"2378",12,78,2,1,1,4.58
"2379",12,79,2,1,0,2.5
"2380",12,80,2,1,1,1.41
"2381",12,81,2,1,1,1.63
"2382",12,82,2,1,1,2.94
"2383",12,83,2,1,0,1.41
"2384",12,84,2,1,0,2.83
"2385",12,85,2,1,0,1.74
"2386",12,86,2,1,0,1.63
"2387",12,87,2,1,1,1.19
"2388",12,88,2,1,0,3.05
"2389",12,89,2,1,1,2.61
"2390",12,90,2,1,1,1.85
"2391",12,91,2,1,1,2.72
"2392",12,92,2,1,1,3.82
"2393",12,93,2,1,1,1.52
"2394",12,94,2,1,1,1.85
"2395",12,95,2,1,1,2.07
"2396",12,96,2,1,1,2.5
"2397",12,97,2,1,1,3.27
"2398",12,98,2,1,0,4.91
"2399",12,99,2,1,0,1.74
"2400",12,100,2,1,1,3.16
"2401",13,1,1,1,1,3.49
"2402",13,2,1,1,1,1.86
"2403",13,3,1,1,0,1.96
"2404",13,4,1,1,0,1.63
"2405",13,5,1,1,1,1.52
"2406",13,6,1,1,1,1.3
"2407",13,7,1,1,0,2.83
"2408",13,8,1,1,0,2.84
"2409",13,9,1,1,1,1.42
"2410",13,10,1,1,1,1.3
"2411",13,11,1,1,1,2.07
"2412",13,12,1,1,0,3.16
"2413",13,13,1,1,1,1.63
"2414",13,14,1,1,0,1.74
"2415",13,15,1,1,1,2.18
"2416",13,16,1,1,1,2.72
"2417",13,17,1,1,0,1.74
"2418",13,18,1,1,1,1.63
"2419",13,19,1,1,1,1.19
"2420",13,20,1,1,0,3.93
"2421",13,21,1,1,0,2.39
"2422",13,22,1,1,1,3.16
"2423",13,23,1,1,1,2.19
"2424",13,24,1,1,1,2.73
"2425",13,25,1,1,0,1.74
"2426",13,26,1,1,1,2.52
"2427",13,27,1,1,1,2.07
"2428",13,28,1,1,0,1.52
"2429",13,29,1,1,0,2.5
"2430",13,30,1,1,1,1.52
"2431",13,31,1,1,1,1.3
"2432",13,32,1,1,1,1.41
"2433",13,33,1,1,1,3.38
"2434",13,34,1,1,1,1.3
"2435",13,35,1,1,1,1.19
"2436",13,36,1,1,1,1.63
"2437",13,37,1,1,1,1.3
"2438",13,38,1,1,1,1.3
"2439",13,39,1,1,0,1.85
"2440",13,40,1,1,1,29.4
"2441",13,41,1,1,1,1.53
"2442",13,42,1,1,1,1.08
"2443",13,43,1,1,1,1.19
"2444",13,44,1,1,1,1.74
"2445",13,45,1,1,1,2.07
"2446",13,46,1,1,0,1.74
"2447",13,47,1,1,1,1.19
"2448",13,48,1,1,1,1.85
"2449",13,49,1,1,1,1.19
"2450",13,50,1,1,1,1.31
"2451",13,51,1,0,1,3.5
"2452",13,52,1,0,1,3.71
"2453",13,53,1,0,1,3.27
"2454",13,54,1,0,1,1.85
"2455",13,55,1,0,1,2.28
"2456",13,56,1,0,1,2.51
"2457",13,57,1,0,1,2.29
"2458",13,58,1,0,1,2.84
"2459",13,59,1,0,0,2.18
"2460",13,60,1,0,1,1.85
"2461",13,61,1,0,1,1.85
"2462",13,62,1,0,1,1.85
"2463",13,63,1,0,1,1.52
"2464",13,64,1,0,1,1.63
"2465",13,65,1,0,1,1.41
"2466",13,66,1,0,0,2.17
"2467",13,67,1,0,0,1.97
"2468",13,68,1,0,0,3.38
"2469",13,69,1,0,1,1.41
"2470",13,70,1,0,0,1.42
"2471",13,71,1,0,0,2.39
"2472",13,72,1,0,1,3.05
"2473",13,73,1,0,1,2.62
"2474",13,74,1,0,1,1.63
"2475",13,75,1,0,1,2.62
"2476",13,76,1,0,0,1.63
"2477",13,77,1,0,1,7.43
"2478",13,78,1,0,0,2.08
"2479",13,79,1,0,0,3.06
"2480",13,80,1,0,1,3.93
"2481",13,81,1,0,1,2.51
"2482",13,82,1,0,1,6.66
"2483",13,83,1,0,0,3.16
"2484",13,84,1,0,1,2.07
"2485",13,85,1,0,1,1.41
"2486",13,86,1,0,1,1.42
"2487",13,87,1,0,1,1.41
"2488",13,88,1,0,1,1.85
"2489",13,89,1,0,1,2.07
"2490",13,90,1,0,1,2.51
"2491",13,91,1,0,1,1.41
"2492",13,92,1,0,1,1.63
"2493",13,93,1,0,0,2.29
"2494",13,94,1,0,1,3.27
"2495",13,95,1,0,1,3.49
"2496",13,96,1,0,1,1.85
"2497",13,97,1,0,0,2.29
"2498",13,98,1,0,1,3.16
"2499",13,99,1,0,1,1.74
"2500",13,100,1,0,1,3.38
"2501",13,1,3,1,1,2.84
"2502",13,2,3,0,1,1.95
"2503",13,3,3,0,0,2.51
"2504",13,4,3,0,1,1.74
"2505",13,5,3,1,1,1.41
"2506",13,6,3,0,1,2.18
"2507",13,7,3,0,0,1.85
"2508",13,8,3,0,1,2.52
"2509",13,9,3,1,1,2.19
"2510",13,10,3,0,1,2.09
"2511",13,11,3,1,1,1.63
"2512",13,12,3,1,1,3.05
"2513",13,13,3,0,0,2.5
"2514",13,14,3,1,1,1.3
"2515",13,15,3,1,1,1.74
"2516",13,16,3,0,0,1.52
"2517",13,17,3,1,1,1.63
"2518",13,18,3,1,1,2.72
"2519",13,19,3,0,0,2.62
"2520",13,20,3,1,1,1.63
"2521",13,21,3,1,1,2.39
"2522",13,22,3,1,0,2.18
"2523",13,23,3,0,1,2.4
"2524",13,24,3,1,1,3.16
"2525",13,25,3,1,0,1.3
"2526",13,26,3,1,1,1.74
"2527",13,27,3,0,1,1.63
"2528",13,28,3,0,1,2.07
"2529",13,29,3,1,1,1.96
"2530",13,30,3,1,1,1.63
"2531",13,31,3,1,1,1.85
"2532",13,32,3,0,1,1.96
"2533",13,33,3,1,1,2.72
"2534",13,34,3,1,1,1.19
"2535",13,35,3,0,1,1.96
"2536",13,36,3,1,0,2.5
"2537",13,37,3,0,1,2.95
"2538",13,38,3,0,0,2.18
"2539",13,39,3,1,1,1.74
"2540",13,40,3,0,1,1.64
"2541",13,41,3,1,0,1.52
"2542",13,42,3,1,0,1.85
"2543",13,43,3,1,0,3.16
"2544",13,44,3,1,1,2.07
"2545",13,45,3,0,1,1.53
"2546",13,46,3,0,0,3.06
"2547",13,47,3,1,1,1.3
"2548",13,48,3,0,1,1.53
"2549",13,49,3,0,1,2.72
"2550",13,50,3,0,0,3.6
"2551",13,51,3,0,1,2.61
"2552",13,52,3,0,0,2.18
"2553",13,53,3,0,1,1.52
"2554",13,54,3,1,1,2.4
"2555",13,55,3,1,1,1.75
"2556",13,56,3,0,0,1.74
"2557",13,57,3,0,0,2.73
"2558",13,58,3,1,0,1.19
"2559",13,59,3,1,0,43.6
"2560",13,60,3,1,1,1.41
"2561",13,61,3,1,0,2.07
"2562",13,62,3,0,1,1.96
"2563",13,63,3,0,1,1.53
"2564",13,64,3,1,1,1.96
"2565",13,65,3,0,1,1.85
"2566",13,66,3,0,1,1.41
"2567",13,67,3,1,0,1.63
"2568",13,68,3,1,1,1.19
"2569",13,69,3,1,1,2.5
"2570",13,70,3,0,0,1.52
"2571",13,71,3,0,1,5.9
"2572",13,72,3,0,1,1.63
"2573",13,73,3,1,1,1.52
"2574",13,74,3,0,1,5.13
"2575",13,75,3,1,1,1.64
"2576",13,76,3,1,0,1.95
"2577",13,77,3,1,1,2.83
"2578",13,78,3,1,1,1.08
"2579",13,79,3,0,1,2.18
"2580",13,80,3,1,1,4.8
"2581",13,81,3,0,1,1.41
"2582",13,82,3,0,0,1.74
"2583",13,83,3,0,1,8.63
"2584",13,84,3,0,1,8.31
"2585",13,85,3,0,1,8.63
"2586",13,86,3,0,0,3.49
"2587",13,87,3,1,0,1.85
"2588",13,88,3,1,1,1.19
"2589",13,89,3,1,0,1.19
"2590",13,90,3,0,0,1.19
"2591",13,91,3,1,0,2.17
"2592",13,92,3,1,1,1.63
"2593",13,93,3,1,0,1.52
"2594",13,94,3,0,1,3.71
"2595",13,95,3,0,1,1.42
"2596",13,96,3,0,1,1.97
"2597",13,97,3,0,0,2.51
"2598",13,98,3,1,1,1.52
"2599",13,99,3,0,1,1.52
"2600",13,100,3,0,1,2.08
"2601",14,1,2,0,1,3.92
"2602",14,2,2,0,1,2.18
"2603",14,3,2,0,0,3.39
"2604",14,4,2,0,1,1.75
"2605",14,5,2,0,1,2.07
"2606",14,6,2,0,1,3.72
"2607",14,7,2,0,1,1.63
"2608",14,8,2,0,1,2.51
"2609",14,9,2,0,1,3.39
"2610",14,10,2,0,1,4.81
"2611",14,11,2,0,1,1.96
"2612",14,12,2,0,1,1.64
"2613",14,13,2,0,1,2.62
"2614",14,14,2,0,0,1.86
"2615",14,15,2,0,0,1.74
"2616",14,16,2,0,0,2.19
"2617",14,17,2,0,0,1.85
"2618",14,18,2,0,1,3.06
"2619",14,19,2,0,1,2.94
"2620",14,20,2,0,1,3.39
"2621",14,21,2,0,1,2.94
"2622",14,22,2,0,1,2.51
"2623",14,23,2,0,1,3.71
"2624",14,24,2,0,0,2.18
"2625",14,25,2,0,1,2.72
"2626",14,26,2,0,1,1.75
"2627",14,27,2,0,1,1.96
"2628",14,28,2,0,1,3.6
"2629",14,29,2,0,1,2.18
"2630",14,30,2,0,1,1.42
"2631",14,31,2,0,1,1.63
"2632",14,32,2,0,1,2.29
"2633",14,33,2,0,1,1.75
"2634",14,34,2,0,1,2.41
"2635",14,35,2,0,1,1.41
"2636",14,36,2,0,1,1.86
"2637",14,37,2,0,0,1.96
"2638",14,38,2,0,1,1.42
"2639",14,39,2,0,1,1.64
"2640",14,40,2,0,0,1.85
"2641",14,41,2,0,1,2.41
"2642",14,42,2,0,1,1.85
"2643",14,43,2,0,1,1.52
"2644",14,44,2,0,1,1.42
"2645",14,45,2,0,1,1.42
"2646",14,46,2,0,1,0.98
"2647",14,47,2,0,0,1.85
"2648",14,48,2,0,1,2.18
"2649",14,49,2,0,1,1.42
"2650",14,50,2,0,1,2.62
"2651",14,51,2,1,0,3.27
"2652",14,52,2,1,1,1.75
"2653",14,53,2,1,1,1.74
"2654",14,54,2,1,1,2.61
"2655",14,55,2,1,1,2.07
"2656",14,56,2,1,1,2.61
"2657",14,57,2,1,1,1.52
"2658",14,58,2,1,0,1.3
"2659",14,59,2,1,1,2.5
"2660",14,60,2,1,0,1.41
"2661",14,61,2,1,0,1.63
"2662",14,62,2,1,1,1.74
"2663",14,63,2,1,1,3.27
"2664",14,64,2,1,1,1.3
"2665",14,65,2,1,0,1.3
"2666",14,66,2,1,0,1.19
"2667",14,67,2,1,0,1.3
"2668",14,68,2,1,0,1.3
"2669",14,69,2,1,1,1.19
"2670",14,70,2,1,1,2.28
"2671",14,71,2,1,1,1.3
"2672",14,72,2,1,0,1.41
"2673",14,73,2,1,1,1.52
"2674",14,74,2,1,1,1.41
"2675",14,75,2,1,1,1.74
"2676",14,76,2,1,0,1.63
"2677",14,77,2,1,1,2.29
"2678",14,78,2,1,0,1.41
"2679",14,79,2,1,0,1.19
"2680",14,80,2,1,1,1.3
"2681",14,81,2,1,1,0.97
"2682",14,82,2,1,1,1.41
"2683",14,83,2,1,0,1.63
"2684",14,84,2,1,1,1.19
"2685",14,85,2,1,1,1.52
"2686",14,86,2,1,1,1.41
"2687",14,87,2,1,0,1.41
"2688",14,88,2,1,0,1.19
"2689",14,89,2,1,1,2.61
"2690",14,90,2,1,0,1.41
"2691",14,91,2,1,1,1.74
"2692",14,92,2,1,0,1.74
"2693",14,93,2,1,1,1.74
"2694",14,94,2,1,1,1.41
"2695",14,95,2,1,0,1.19
"2696",14,96,2,1,0,2.83
"2697",14,97,2,1,1,1.85
"2698",14,98,2,1,0,1.08
"2699",14,99,2,1,0,2.18
"2700",14,100,2,1,1,2.07
"2701",14,1,3,1,1,1.63
"2702",14,2,3,0,0,1.31
"2703",14,3,3,0,1,1.31
"2704",14,4,3,0,1,1.2
"2705",14,5,3,0,0,1.64
"2706",14,6,3,0,0,1.42
"2707",14,7,3,0,1,1.75
"2708",14,8,3,1,1,1.63
"2709",14,9,3,1,0,0.97
"2710",14,10,3,1,1,1.08
"2711",14,11,3,1,0,0.76
"2712",14,12,3,1,0,0.75
"2713",14,13,3,1,1,1.3
"2714",14,14,3,0,0,1.42
"2715",14,15,3,1,1,0.86
"2716",14,16,3,0,0,2.83
"2717",14,17,3,1,0,1.08
"2718",14,18,3,0,1,1.42
"2719",14,19,3,1,0,0.97
"2720",14,20,3,1,1,0.86
"2721",14,21,3,0,1,2.4
"2722",14,22,3,1,0,1.52
"2723",14,23,3,0,0,2.4
"2724",14,24,3,0,1,1.64
"2725",14,25,3,0,1,1.63
"2726",14,26,3,1,1,1.08
"2727",14,27,3,1,1,1.19
"2728",14,28,3,1,0,0.97
"2729",14,29,3,0,0,2.62
"2730",14,30,3,0,0,1.41
"2731",14,31,3,0,1,1.42
"2732",14,32,3,0,0,1.97
"2733",14,33,3,0,1,1.31
"2734",14,34,3,0,0,1.42
"2735",14,35,3,1,0,1.08
"2736",14,36,3,0,1,1.31
"2737",14,37,3,1,0,0.86
"2738",14,38,3,1,0,0.97
"2739",14,39,3,1,0,0.75
"2740",14,40,3,1,0,0.53
"2741",14,41,3,1,1,0.98
"2742",14,42,3,1,0,1.41
"2743",14,43,3,0,0,1.42
"2744",14,44,3,1,0,0.97
"2745",14,45,3,1,0,0.75
"2746",14,46,3,0,0,1.2
"2747",14,47,3,1,1,0.86
"2748",14,48,3,1,1,0.54
"2749",14,49,3,1,0,0.76
"2750",14,50,3,0,0,1.74
"2751",14,51,3,0,0,0.87
"2752",14,52,3,0,1,0.76
"2753",14,53,3,0,1,1.19
"2754",14,54,3,1,0,0.86
"2755",14,55,3,0,1,3.17
"2756",14,56,3,1,0,0.97
"2757",14,57,3,1,1,0.97
"2758",14,58,3,1,0,0.86
"2759",14,59,3,1,0,0.32
"2760",14,60,3,1,0,1.41
"2761",14,61,3,0,0,2.18
"2762",14,62,3,1,1,0.65
"2763",14,63,3,0,1,1.97
"2764",14,64,3,0,1,1.31
"2765",14,65,3,0,1,1.31
"2766",14,66,3,0,0,1.53
"2767",14,67,3,1,0,0.75
"2768",14,68,3,0,1,1.74
"2769",14,69,3,1,1,1.08
"2770",14,70,3,0,0,1.2
"2771",14,71,3,0,1,0.87
"2772",14,72,3,0,1,1.85
"2773",14,73,3,1,1,0.65
"2774",14,74,3,1,1,0.54
"2775",14,75,3,1,0,0.54
"2776",14,76,3,0,0,1.64
"2777",14,77,3,1,1,1.19
"2778",14,78,3,0,0,1.09
"2779",14,79,3,1,1,0.75
"2780",14,80,3,1,0,0.43
"2781",14,81,3,0,1,0.87
"2782",14,82,3,0,0,0.76
"2783",14,83,3,0,1,0.54
"2784",14,84,3,0,0,0.65
"2785",14,85,3,0,0,0.65
"2786",14,86,3,1,1,0.64
"2787",14,87,3,1,0,0.97
"2788",14,88,3,0,1,0.65
"2789",14,89,3,0,0,0.98
"2790",14,90,3,1,0,0.86
"2791",14,91,3,1,0,0.54
"2792",14,92,3,0,0,0.75
"2793",14,93,3,1,0,0.54
"2794",14,94,3,0,0,0.54
"2795",14,95,3,1,0,0.75
"2796",14,96,3,1,1,0.43
"2797",14,97,3,0,0,0.65
"2798",14,98,3,1,1,0.54
"2799",14,99,3,0,0,0.65
"2800",14,100,3,0,0,0.98
"2801",15,1,3,1,1,3.49
"2802",15,2,3,0,1,10.2
"2803",15,3,3,1,1,2.28
"2804",15,4,3,1,1,1.74
"2805",15,5,3,0,0,2.51
"2806",15,6,3,0,0,3.49
"2807",15,7,3,1,1,1.3
"2808",15,8,3,1,1,1.85
"2809",15,9,3,1,1,1.3
"2810",15,10,3,0,0,2.83
"2811",15,11,3,1,1,1.52
"2812",15,12,3,1,1,1.41
"2813",15,13,3,1,1,1.19
"2814",15,14,3,1,1,1.52
"2815",15,15,3,1,1,2.5
"2816",15,16,3,1,1,1.08
"2817",15,17,3,1,1,2.94
"2818",15,18,3,0,1,1.75
"2819",15,19,3,0,1,1.96
"2820",15,20,3,0,1,2.29
"2821",15,21,3,1,1,2.94
"2822",15,22,3,1,1,1.3
"2823",15,23,3,0,1,1.63
"2824",15,24,3,0,1,1.42
"2825",15,25,3,0,1,1.52
"2826",15,26,3,0,1,1.52
"2827",15,27,3,1,1,1.41
"2828",15,28,3,0,1,1.19
"2829",15,29,3,0,1,1.74
"2830",15,30,3,1,1,1.63
"2831",15,31,3,1,1,2.07
"2832",15,32,3,1,1,2.84
"2833",15,33,3,0,1,2.5
"2834",15,34,3,0,0,1.85
"2835",15,35,3,1,1,1.41
"2836",15,36,3,0,1,3.6
"2837",15,37,3,1,1,2.72
"2838",15,38,3,0,0,2.18
"2839",15,39,3,1,1,1.52
"2840",15,40,3,0,1,1.85
"2841",15,41,3,1,1,1.3
"2842",15,42,3,1,1,0.87
"2843",15,43,3,1,1,0.86
"2844",15,44,3,0,0,1.96
"2845",15,45,3,0,1,1.74
"2846",15,46,3,0,1,1.64
"2847",15,47,3,1,0,1.19
"2848",15,48,3,1,1,1.74
"2849",15,49,3,0,1,1.85
"2850",15,50,3,0,1,1.86
"2851",15,51,3,1,1,3.27
"2852",15,52,3,0,1,2.07
"2853",15,53,3,1,1,1.63
"2854",15,54,3,0,1,1.74
"2855",15,55,3,1,1,2.39
"2856",15,56,3,0,1,1.85
"2857",15,57,3,1,1,1.19
"2858",15,58,3,0,0,2.61
"2859",15,59,3,1,1,2.83
"2860",15,60,3,0,0,1.52
"2861",15,61,3,1,1,1.2
"2862",15,62,3,0,1,1.41
"2863",15,63,3,1,0,1.63
"2864",15,64,3,0,0,1.31
"2865",15,65,3,0,1,2.07
"2866",15,66,3,0,1,5.57
"2867",15,67,3,0,1,1.3
"2868",15,68,3,1,0,1.41
"2869",15,69,3,1,1,1.08
"2870",15,70,3,0,0,1.41
"2871",15,71,3,0,0,2.18
"2872",15,72,3,0,0,1.85
"2873",15,73,3,0,1,2.52
"2874",15,74,3,0,0,1.31
"2875",15,75,3,1,1,2.18
"2876",15,76,3,0,1,1.63
"2877",15,77,3,1,1,1.85
"2878",15,78,3,1,1,1.41
"2879",15,79,3,0,1,1.08
"2880",15,80,3,1,1,4.8
"2881",15,81,3,0,1,1.3
"2882",15,82,3,1,1,1.3
"2883",15,83,3,0,1,1.85
"2884",15,84,3,1,1,1.96
"2885",15,85,3,1,1,1.41
"2886",15,86,3,0,1,1.64
"2887",15,87,3,1,1,1.41
"2888",15,88,3,0,0,1.85
"2889",15,89,3,1,1,2.39
"2890",15,90,3,0,1,1.52
"2891",15,91,3,0,1,1.96
"2892",15,92,3,0,0,1.52
"2893",15,93,3,1,1,1.85
"2894",15,94,3,0,0,1.63
"2895",15,95,3,1,1,1.52
"2896",15,96,3,0,1,2.73
"2897",15,97,3,0,0,1.52
"2898",15,98,3,1,0,1.3
"2899",15,99,3,1,0,1.19
"2900",15,100,3,1,1,1.19
"2901",15,1,1,1,1,2.73
"2902",15,2,1,1,1,2.18
"2903",15,3,1,1,1,1.85
"2904",15,4,1,1,1,1.3
"2905",15,5,1,1,1,4.05
"2906",15,6,1,1,0,1.3
"2907",15,7,1,1,0,1.52
"2908",15,8,1,1,1,1.19
"2909",15,9,1,1,0,1.63
"2910",15,10,1,1,0,1.75
"2911",15,11,1,1,0,1.85
"2912",15,12,1,1,1,1.41
"2913",15,13,1,1,0,2.41
"2914",15,14,1,1,1,1.08
"2915",15,15,1,1,1,1.3
"2916",15,16,1,1,0,1.96
"2917",15,17,1,1,1,1.75
"2918",15,18,1,1,1,1.41
"2919",15,19,1,1,0,2.08
"2920",15,20,1,1,1,0.86
"2921",15,21,1,1,1,2.06
"2922",15,22,1,1,0,2.39
"2923",15,23,1,1,0,2.07
"2924",15,24,1,1,1,1.63
"2925",15,25,1,1,1,1.19
"2926",15,26,1,1,0,1.08
"2927",15,27,1,1,1,1.3
"2928",15,28,1,1,0,1.41
"2929",15,29,1,1,1,1.2
"2930",15,30,1,1,1,2.29
"2931",15,31,1,1,1,1.96
"2932",15,32,1,1,0,1.41
"2933",15,33,1,1,0,1.74
"2934",15,34,1,1,0,1.41
"2935",15,35,1,1,1,0.86
"2936",15,36,1,1,1,1.63
"2937",15,37,1,1,1,1.3
"2938",15,38,1,1,0,1.63
"2939",15,39,1,1,1,1.96
"2940",15,40,1,1,1,3.6
"2941",15,41,1,1,1,0.86
"2942",15,42,1,1,1,1.74
"2943",15,43,1,1,0,2.5
"2944",15,44,1,1,1,1.74
"2945",15,45,1,1,1,1.85
"2946",15,46,1,1,1,1.19
"2947",15,47,1,1,0,1.52
"2948",15,48,1,1,1,1.52
"2949",15,49,1,1,1,1.74
"2950",15,50,1,1,1,1.74
"2951",15,51,1,0,1,2.17
"2952",15,52,1,0,1,1.96
"2953",15,53,1,0,1,3.06
"2954",15,54,1,0,1,1.64
"2955",15,55,1,0,1,2.07
"2956",15,56,1,0,1,1.2
"2957",15,57,1,0,1,2.4
"2958",15,58,1,0,1,2.73
"2959",15,59,1,0,1,4.48
"2960",15,60,1,0,0,2.4
"2961",15,61,1,0,0,2.18
"2962",15,62,1,0,1,2.95
"2963",15,63,1,0,1,2.18
"2964",15,64,1,0,1,1.85
"2965",15,65,1,0,0,2.29
"2966",15,66,1,0,1,2.18
"2967",15,67,1,0,1,1.42
"2968",15,68,1,0,1,1.96
"2969",15,69,1,0,1,2.29
"2970",15,70,1,0,1,2.18
"2971",15,71,1,0,1,1.63
"2972",15,72,1,0,1,1.74
"2973",15,73,1,0,1,1.85
"2974",15,74,1,0,1,3.16
"2975",15,75,1,0,1,2.18
"2976",15,76,1,0,1,1.41
"2977",15,77,1,0,1,1.31
"2978",15,78,1,0,1,3.05
"2979",15,79,1,0,1,2.84
"2980",15,80,1,0,1,2.72
"2981",15,81,1,0,1,4.04
"2982",15,82,1,0,1,2.29
"2983",15,83,1,0,1,2.84
"2984",15,84,1,0,1,1.3
"2985",15,85,1,0,1,2.62
"2986",15,86,1,0,1,2.51
"2987",15,87,1,0,0,2.4
"2988",15,88,1,0,1,1.42
"2989",15,89,1,0,1,1.85
"2990",15,90,1,0,1,2.07
"2991",15,91,1,0,0,2.5
"2992",15,92,1,0,0,2.18
"2993",15,93,1,0,0,3.38
"2994",15,94,1,0,0,1.74
"2995",15,95,1,0,0,1.31
"2996",15,96,1,0,1,1.41
"2997",15,97,1,0,0,1.52
"2998",15,98,1,0,1,2.29
"2999",15,99,1,0,1,1.3
"3000",15,100,1,0,1,1.31
"3001",16,1,3,1,1,1.74
"3002",16,2,3,1,1,1.41
"3003",16,3,3,0,1,1.41
"3004",16,4,3,0,0,1.09
"3005",16,5,3,1,0,1.74
"3006",16,6,3,1,1,1.52
"3007",16,7,3,0,1,1.64
"3008",16,8,3,0,1,1.53
"3009",16,9,3,0,0,3.72
"3010",16,10,3,1,1,0.86
"3011",16,11,3,0,0,2.17
"3012",16,12,3,0,1,1.52
"3013",16,13,3,0,1,1.41
"3014",16,14,3,1,1,1.52
"3015",16,15,3,0,1,1.41
"3016",16,16,3,1,1,2.18
"3017",16,17,3,0,1,1.64
"3018",16,18,3,1,1,1.3
"3019",16,19,3,1,1,1.63
"3020",16,20,3,1,0,1.74
"3021",16,21,3,0,1,1.96
"3022",16,22,3,0,1,1.53
"3023",16,23,3,1,0,1.74
"3024",16,24,3,1,1,1.85
"3025",16,25,3,0,1,0.98
"3026",16,26,3,0,1,2.51
"3027",16,27,3,1,1,1.63
"3028",16,28,3,1,1,1.3
"3029",16,29,3,0,1,3.5
"3030",16,30,3,0,1,1.2
"3031",16,31,3,1,0,2.83
"3032",16,32,3,0,0,1.96
"3033",16,33,3,1,1,2.07
"3034",16,34,3,0,1,2.29
"3035",16,35,3,0,1,1.21
"3036",16,36,3,1,1,1.41
"3037",16,37,3,0,1,1.53
"3038",16,38,3,0,1,1.85
"3039",16,39,3,1,0,1.63
"3040",16,40,3,1,1,1.3
"3041",16,41,3,0,1,1.75
"3042",16,42,3,0,1,2.62
"3043",16,43,3,1,0,1.85
"3044",16,44,3,0,0,1.64
"3045",16,45,3,0,1,3.6
"3046",16,46,3,1,1,1.41
"3047",16,47,3,1,0,1.3
"3048",16,48,3,0,1,1.42
"3049",16,49,3,1,1,2.18
"3050",16,50,3,1,1,1.3
"3051",16,51,3,1,1,1.63
"3052",16,52,3,0,1,1.96
"3053",16,53,3,0,0,1.09
"3054",16,54,3,1,1,1.19
"3055",16,55,3,1,0,1.52
"3056",16,56,3,0,1,1.64
"3057",16,57,3,0,1,1.85
"3058",16,58,3,1,1,1.63
"3059",16,59,3,0,0,1.97
"3060",16,60,3,1,1,2.18
"3061",16,61,3,0,1,2.3
"3062",16,62,3,0,1,1.53
"3063",16,63,3,1,1,1.85
"3064",16,64,3,1,1,0.86
"3065",16,65,3,0,1,2.07
"3066",16,66,3,0,1,1.64
"3067",16,67,3,0,0,1.85
"3068",16,68,3,0,0,1.42
"3069",16,69,3,1,1,1.52
"3070",16,70,3,0,1,1.74
"3071",16,71,3,1,1,2.07
"3072",16,72,3,1,1,1.08
"3073",16,73,3,1,0,1.41
"3074",16,74,3,0,1,1.64
"3075",16,75,3,0,0,1.64
"3076",16,76,3,0,1,1.63
"3077",16,77,3,1,1,1.19
"3078",16,78,3,0,1,3.92
"3079",16,79,3,0,1,1.31
"3080",16,80,3,1,1,1.52
"3081",16,81,3,1,0,1.19
"3082",16,82,3,1,1,1.19
"3083",16,83,3,1,0,2.17
"3084",16,84,3,0,1,1.86
"3085",16,85,3,1,0,2.5
"3086",16,86,3,1,0,3.49
"3087",16,87,3,1,1,0.97
"3088",16,88,3,0,1,2.19
"3089",16,89,3,0,0,1.42
"3090",16,90,3,1,1,1.85
"3091",16,91,3,1,1,0.75
"3092",16,92,3,0,1,1.95
"3093",16,93,3,1,1,0.86
"3094",16,94,3,0,0,2.51
"3095",16,95,3,1,0,1.52
"3096",16,96,3,1,1,1.52
"3097",16,97,3,0,0,5.9
"3098",16,98,3,0,0,1.3
"3099",16,99,3,1,0,0.97
"3100",16,100,3,1,1,1.08
"3101",16,1,2,0,1,1.63
"3102",16,2,2,0,1,1.74
"3103",16,3,2,0,1,1.42
"3104",16,4,2,0,1,1.52
"3105",16,5,2,0,0,1.97
"3106",16,6,2,0,1,3.71
"3107",16,7,2,0,1,1.63
"3108",16,8,2,0,1,1.85
"3109",16,9,2,0,1,2.84
"3110",16,10,2,0,1,1.64
"3111",16,11,2,0,1,1.73
"3112",16,12,2,0,1,3.06
"3113",16,13,2,0,0,2.18
"3114",16,14,2,0,0,2.28
"3115",16,15,2,0,1,1.63
"3116",16,16,2,0,0,3.38
"3117",16,17,2,0,0,1.75
"3118",16,18,2,0,1,1.75
"3119",16,19,2,0,1,1.53
"3120",16,20,2,0,1,1.97
"3121",16,21,2,0,0,1.31
"3122",16,22,2,0,1,2.84
"3123",16,23,2,0,1,1.97
"3124",16,24,2,0,1,1.75
"3125",16,25,2,0,1,1.53
"3126",16,26,2,0,1,2.73
"3127",16,27,2,0,0,1.52
"3128",16,28,2,0,1,1.53
"3129",16,29,2,0,1,1.97
"3130",16,30,2,0,0,2.84
"3131",16,31,2,0,1,2.95
"3132",16,32,2,0,1,1.2
"3133",16,33,2,0,1,1.86
"3134",16,34,2,0,1,1.09
"3135",16,35,2,0,1,1.41
"3136",16,36,2,0,1,1.2
"3137",16,37,2,0,1,1.85
"3138",16,38,2,0,0,1.09
"3139",16,39,2,0,0,1.63
"3140",16,40,2,0,1,1.63
"3141",16,41,2,0,0,1.2
"3142",16,42,2,0,1,0.98
"3143",16,43,2,0,1,2.4
"3144",16,44,2,0,1,1.95
"3145",16,45,2,0,1,1.53
"3146",16,46,2,0,0,1.2
"3147",16,47,2,0,1,1.64
"3148",16,48,2,0,1,1.75
"3149",16,49,2,0,1,1.97
"3150",16,50,2,0,1,0.98
"3151",16,51,2,1,1,1.85
"3152",16,52,2,1,1,1.08
"3153",16,53,2,1,0,0.97
"3154",16,54,2,1,1,0.86
"3155",16,55,2,1,1,1.41
"3156",16,56,2,1,1,1.63
"3157",16,57,2,1,1,2.29
"3158",16,58,2,1,1,1.08
"3159",16,59,2,1,1,1.19
"3160",16,60,2,1,1,1.08
"3161",16,61,2,1,0,1.42
"3162",16,62,2,1,0,0.97
"3163",16,63,2,1,1,1.3
"3164",16,64,2,1,0,1.19
"3165",16,65,2,1,1,3.16
"3166",16,66,2,1,1,0.75
"3167",16,67,2,1,1,0.75
"3168",16,68,2,1,1,1.41
"3169",16,69,2,1,0,2.29
"3170",16,70,2,1,1,0.75
"3171",16,71,2,1,0,1.41
"3172",16,72,2,1,0,1.08
"3173",16,73,2,1,0,2.07
"3174",16,74,2,1,1,0.86
"3175",16,75,2,1,1,1.85
"3176",16,76,2,1,1,1.85
"3177",16,77,2,1,1,2.29
"3178",16,78,2,1,1,1.52
"3179",16,79,2,1,0,1.86
"3180",16,80,2,1,0,1.19
"3181",16,81,2,1,1,1.52
"3182",16,82,2,1,0,0.97
"3183",16,83,2,1,1,1.41
"3184",16,84,2,1,1,1.09
"3185",16,85,2,1,0,0.86
"3186",16,86,2,1,0,1.08
"3187",16,87,2,1,1,1.08
"3188",16,88,2,1,0,0.53
"3189",16,89,2,1,1,1.08
"3190",16,90,2,1,1,0.86
"3191",16,91,2,1,0,0.97
"3192",16,92,2,1,0,0.86
"3193",16,93,2,1,0,1.08
"3194",16,94,2,1,1,0.75
"3195",16,95,2,1,1,1.63
"3196",16,96,2,1,1,0.75
"3197",16,97,2,1,1,1.3
"3198",16,98,2,1,1,0.75
"3199",16,99,2,1,1,1.08
"3200",16,100,2,1,1,1.74
"3201",17,1,1,1,1,3.93
"3202",17,2,1,1,1,1.09
"3203",17,3,1,1,1,0.75
"3204",17,4,1,1,0,1.52
"3205",17,5,1,1,1,1.95
"3206",17,6,1,1,1,1.52
"3207",17,7,1,1,0,1.19
"3208",17,8,1,1,1,1.63
"3209",17,9,1,1,0,1.85
"3210",17,10,1,1,1,1.42
"3211",17,11,1,1,1,2.07
"3212",17,12,1,1,0,1.08
"3213",17,13,1,1,1,0.97
"3214",17,14,1,1,1,1.19
"3215",17,15,1,1,1,1.08
"3216",17,16,1,1,1,1.52
"3217",17,17,1,1,1,1.08
"3218",17,18,1,1,0,0.97
"3219",17,19,1,1,1,1.19
"3220",17,20,1,1,1,1.3
"3221",17,21,1,1,1,1.74
"3222",17,22,1,1,1,1.63
"3223",17,23,1,1,1,1.41
"3224",17,24,1,1,1,1.85
"3225",17,25,1,1,1,0.88
"3226",17,26,1,1,0,1.3
"3227",17,27,1,1,1,0.97
"3228",17,28,1,1,1,1.2
"3229",17,29,1,1,1,1.08
"3230",17,30,1,1,1,1.74
"3231",17,31,1,1,1,1.08
"3232",17,32,1,1,1,0.86
"3233",17,33,1,1,1,0.97
"3234",17,34,1,1,0,1.3
"3235",17,35,1,1,1,1.3
"3236",17,36,1,1,0,1.41
"3237",17,37,1,1,1,1.08
"3238",17,38,1,1,1,1.41
"3239",17,39,1,1,0,1.3
"3240",17,40,1,1,1,0.97
"3241",17,41,1,1,1,0.97
"3242",17,42,1,1,0,1.41
"3243",17,43,1,1,0,1.08
"3244",17,44,1,1,1,0.86
"3245",17,45,1,1,1,0.86
"3246",17,46,1,1,1,1.86
"3247",17,47,1,1,1,1.96
"3248",17,48,1,1,1,1.08
"3249",17,49,1,1,1,1.19
"3250",17,50,1,1,1,1.3
"3251",17,51,1,0,0,1.3
"3252",17,52,1,0,0,1.41
"3253",17,53,1,0,1,0.1
"3254",17,54,1,0,1,1.31
"3255",17,55,1,0,1,0.98
"3256",17,56,1,0,1,1.19
"3257",17,57,1,0,0,1.19
"3258",17,58,1,0,1,0.98
"3259",17,59,1,0,1,1.41
"3260",17,60,1,0,0,1.09
"3261",17,61,1,0,0,2.18
"3262",17,62,1,0,0,1.52
"3263",17,63,1,0,1,1.63
"3264",17,64,1,0,1,1.85
"3265",17,65,1,0,1,1.31
"3266",17,66,1,0,0,1.2
"3267",17,67,1,0,0,1.19
"3268",17,68,1,0,1,1.96
"3269",17,69,1,0,1,1.96
"3270",17,70,1,0,1,1.31
"3271",17,71,1,0,1,1.2
"3272",17,72,1,0,1,1.09
"3273",17,73,1,0,1,1.19
"3274",17,74,1,0,1,2.51
"3275",17,75,1,0,0,1.63
"3276",17,76,1,0,1,1.75
"3277",17,77,1,0,0,1.3
"3278",17,78,1,0,1,1.19
"3279",17,79,1,0,1,1.3
"3280",17,80,1,0,0,1.63
"3281",17,81,1,0,1,1.19
"3282",17,82,1,0,0,0.97
"3283",17,83,1,0,1,2.17
"3284",17,84,1,0,1,2.51
"3285",17,85,1,0,1,1.63
"3286",17,86,1,0,0,1.3
"3287",17,87,1,0,0,1.52
"3288",17,88,1,0,0,0.98
"3289",17,89,1,0,0,0.97
"3290",17,90,1,0,0,1.09
"3291",17,91,1,0,0,0.98
"3292",17,92,1,0,1,1.96
"3293",17,93,1,0,1,1.09
"3294",17,94,1,0,0,2.51
"3295",17,95,1,0,1,1.2
"3296",17,96,1,0,1,0.98
"3297",17,97,1,0,0,1.2
"3298",17,98,1,0,1,1.41
"3299",17,99,1,0,0,0.97
"3300",17,100,1,0,0,1.2
"3301",17,1,3,0,1,1.86
"3302",17,2,3,1,1,1.19
"3303",17,3,3,0,1,1.74
"3304",17,4,3,0,1,2.62
"3305",17,5,3,0,0,2.18
"3306",17,6,3,0,1,1.41
"3307",17,7,3,0,1,3.17
"3308",17,8,3,1,1,1.3
"3309",17,9,3,1,1,0.97
"3310",17,10,3,0,1,1.75
"3311",17,11,3,0,1,1.85
"3312",17,12,3,1,1,1.41
"3313",17,13,3,1,1,0.97
"3314",17,14,3,1,1,0.97
"3315",17,15,3,1,1,1.08
"3316",17,16,3,0,1,1.96
"3317",17,17,3,0,1,1.3
"3318",17,18,3,1,1,1.19
"3319",17,19,3,1,0,1.19
"3320",17,20,3,1,1,1.85
"3321",17,21,3,0,0,1.74
"3322",17,22,3,1,1,1.3
"3323",17,23,3,0,1,1.09
"3324",17,24,3,0,0,2.4
"3325",17,25,3,0,0,1.85
"3326",17,26,3,0,1,1.3
"3327",17,27,3,1,1,1.52
"3328",17,28,3,0,0,1.31
"3329",17,29,3,0,1,1.63
"3330",17,30,3,1,1,1.52
"3331",17,31,3,0,0,1.19
"3332",17,32,3,1,1,1.3
"3333",17,33,3,1,1,1.08
"3334",17,34,3,0,1,1.41
"3335",17,35,3,1,1,0.86
"3336",17,36,3,0,1,1.52
"3337",17,37,3,0,0,1.3
"3338",17,38,3,0,0,1.31
"3339",17,39,3,0,0,2.07
"3340",17,40,3,1,0,2.61
"3341",17,41,3,1,1,0.75
"3342",17,42,3,1,0,1.3
"3343",17,43,3,0,1,2.18
"3344",17,44,3,1,1,1.3
"3345",17,45,3,1,1,0.86
"3346",17,46,3,0,1,1.42
"3347",17,47,3,0,1,1.08
"3348",17,48,3,0,1,0.97
"3349",17,49,3,0,1,1.2
"3350",17,50,3,1,1,0.97
"3351",17,51,3,0,1,1.2
"3352",17,52,3,0,1,1.41
"3353",17,53,3,0,1,1.09
"3354",17,54,3,1,1,1.74
"3355",17,55,3,0,0,1.41
"3356",17,56,3,1,0,1.52
"3357",17,57,3,1,1,1.08
"3358",17,58,3,0,1,1.64
"3359",17,59,3,1,1,1.52
"3360",17,60,3,1,1,1.08
"3361",17,61,3,1,0,1.63
"3362",17,62,3,1,1,1.3
"3363",17,63,3,1,1,1.08
"3364",17,64,3,0,0,1.31
"3365",17,65,3,0,0,0.98
"3366",17,66,3,1,1,0.97
"3367",17,67,3,1,0,1.63
"3368",17,68,3,0,0,1.64
"3369",17,69,3,0,0,1.08
"3370",17,70,3,0,1,1.19
"3371",17,71,3,1,0,1.08
"3372",17,72,3,0,1,2.51
"3373",17,73,3,1,0,1.3
"3374",17,74,3,0,1,1.53
"3375",17,75,3,1,1,1.19
"3376",17,76,3,1,1,1.19
"3377",17,77,3,1,0,1.19
"3378",17,78,3,1,1,1.08
"3379",17,79,3,0,0,1.42
"3380",17,80,3,0,1,0.32
"3381",17,81,3,0,1,1.74
"3382",17,82,3,1,1,1.41
"3383",17,83,3,0,0,1.31
"3384",17,84,3,0,0,1.19
"3385",17,85,3,1,0,1.08
"3386",17,86,3,1,1,1.19
"3387",17,87,3,0,1,1.2
"3388",17,88,3,1,0,1.08
"3389",17,89,3,0,1,0.87
"3390",17,90,3,1,0,1.19
"3391",17,91,3,0,1,1.19
"3392",17,92,3,1,0,1.19
"3393",17,93,3,1,1,0.97
"3394",17,94,3,0,0,2.07
"3395",17,95,3,1,0,1.08
"3396",17,96,3,1,1,1.41
"3397",17,97,3,1,0,1.41
"3398",17,98,3,0,0,1.74
"3399",17,99,3,1,1,1.85
"3400",17,100,3,1,0,1.3
"3401",18,1,2,0,1,2.29
"3402",18,2,2,0,1,3.17
"3403",18,3,2,0,1,1.19
"3404",18,4,2,0,0,2.73
"3405",18,5,2,0,1,1.52
"3406",18,6,2,0,1,1.84
"3407",18,7,2,0,1,2.4
"3408",18,8,2,0,1,2.18
"3409",18,9,2,0,0,2.84
"3410",18,10,2,0,1,1.42
"3411",18,11,2,0,1,3.27
"3412",18,12,2,0,1,1.85
"3413",18,13,2,0,1,1.97
"3414",18,14,2,0,1,0.98
"3415",18,15,2,0,1,2.39
"3416",18,16,2,0,1,1.85
"3417",18,17,2,0,1,1.75
"3418",18,18,2,0,0,1.64
"3419",18,19,2,0,0,1.75
"3420",18,20,2,0,1,2.07
"3421",18,21,2,0,0,2.18
"3422",18,22,2,0,1,2.4
"3423",18,23,2,0,0,1.64
"3424",18,24,2,0,0,1.64
"3425",18,25,2,0,1,1.31
"3426",18,26,2,0,1,2.5
"3427",18,27,2,0,1,1.42
"3428",18,28,2,0,1,1.96
"3429",18,29,2,0,0,2.07
"3430",18,30,2,0,1,2.29
"3431",18,31,2,0,1,1.75
"3432",18,32,2,0,1,1.53
"3433",18,33,2,0,0,2.64
"3434",18,34,2,0,1,2.84
"3435",18,35,2,0,1,2.52
"3436",18,36,2,0,1,2.08
"3437",18,37,2,0,1,1.96
"3438",18,38,2,0,1,1.52
"3439",18,39,2,0,0,3.71
"3440",18,40,2,0,1,2.07
"3441",18,41,2,0,0,2.73
"3442",18,42,2,0,1,1.74
"3443",18,43,2,0,0,3.06
"3444",18,44,2,0,0,1.63
"3445",18,45,2,0,1,1.64
"3446",18,46,2,0,1,1.64
"3447",18,47,2,0,1,1.3
"3448",18,48,2,0,1,2.29
"3449",18,49,2,0,1,3.06
"3450",18,50,2,0,0,1.63
"3451",18,51,2,1,0,3.49
"3452",18,52,2,1,1,2.52
"3453",18,53,2,1,1,1.85
"3454",18,54,2,1,1,1.3
"3455",18,55,2,1,1,1.41
"3456",18,56,2,1,1,1.74
"3457",18,57,2,1,1,1.52
"3458",18,58,2,1,1,1.85
"3459",18,59,2,1,1,1.19
"3460",18,60,2,1,1,1.3
"3461",18,61,2,1,0,1.63
"3462",18,62,2,1,0,1.52
"3463",18,63,2,1,0,2.19
"3464",18,64,2,1,1,1.19
"3465",18,65,2,1,0,2.28
"3466",18,66,2,1,0,1.63
"3467",18,67,2,1,1,3.05
"3468",18,68,2,1,1,1.52
"3469",18,69,2,1,1,1.52
"3470",18,70,2,1,1,1.3
"3471",18,71,2,1,1,1.41
"3472",18,72,2,1,1,1.63
"3473",18,73,2,1,1,2.72
"3474",18,74,2,1,1,1.85
"3475",18,75,2,1,1,1.85
"3476",18,76,2,1,1,1.42
"3477",18,77,2,1,0,1.63
"3478",18,78,2,1,1,1.85
"3479",18,79,2,1,1,1.3
"3480",18,80,2,1,1,1.41
"3481",18,81,2,1,0,2.72
"3482",18,82,2,1,0,2.72
"3483",18,83,2,1,1,2.07
"3484",18,84,2,1,1,1.74
"3485",18,85,2,1,0,1.85
"3486",18,86,2,1,1,1.96
"3487",18,87,2,1,1,1.74
"3488",18,88,2,1,1,1.31
"3489",18,89,2,1,1,2.72
"3490",18,90,2,1,1,1.19
"3491",18,91,2,1,0,1.96
"3492",18,92,2,1,0,1.63
"3493",18,93,2,1,0,1.74
"3494",18,94,2,1,1,2.72
"3495",18,95,2,1,1,2.18
"3496",18,96,2,1,0,1.52
"3497",18,97,2,1,1,2.07
"3498",18,98,2,1,0,1.3
"3499",18,99,2,1,1,1.19
"3500",18,100,2,1,1,1.19
"3501",18,1,3,0,1,2.51
"3502",18,2,3,1,1,1.3
"3503",18,3,3,0,1,2.73
"3504",18,4,3,1,0,1.19
"3505",18,5,3,1,0,0.1
"3506",18,6,3,1,0,2.94
"3507",18,7,3,0,1,2.39
"3508",18,8,3,1,1,1.3
"3509",18,9,3,1,0,2.63
"3510",18,10,3,1,1,2.52
"3511",18,11,3,1,0,1.41
"3512",18,12,3,1,0,1.19
"3513",18,13,3,1,0,1.52
"3514",18,14,3,1,0,1.85
"3515",18,15,3,0,1,2.62
"3516",18,16,3,1,0,1.41
"3517",18,17,3,0,1,1.97
"3518",18,18,3,1,1,1.08
"3519",18,19,3,0,0,2.61
"3520",18,20,3,1,1,1.19
"3521",18,21,3,0,1,1.74
"3522",18,22,3,0,0,2.29
"3523",18,23,3,0,1,2.5
"3524",18,24,3,1,1,1.41
"3525",18,25,3,0,1,1.53
"3526",18,26,3,1,1,1.41
"3527",18,27,3,0,0,2.06
"3528",18,28,3,1,1,1.08
"3529",18,29,3,0,0,4.37
"3530",18,30,3,1,1,1.85
"3531",18,31,3,1,0,1.08
"3532",18,32,3,0,1,1.41
"3533",18,33,3,0,0,2.73
"3534",18,34,3,0,1,3.17
"3535",18,35,3,0,1,1.86
"3536",18,36,3,1,1,1.96
"3537",18,37,3,0,1,1.85
"3538",18,38,3,1,1,1.41
"3539",18,39,3,1,1,1.96
"3540",18,40,3,1,1,1.19
"3541",18,41,3,1,1,2.07
"3542",18,42,3,1,1,1.19
"3543",18,43,3,0,1,2.4
"3544",18,44,3,0,1,3.16
"3545",18,45,3,0,1,1.96
"3546",18,46,3,0,0,3.17
"3547",18,47,3,0,1,1.85
"3548",18,48,3,1,1,1.3
"3549",18,49,3,1,1,1.19
"3550",18,50,3,0,1,1.53
"3551",18,51,3,1,1,1.85
"3552",18,52,3,1,1,1.74
"3553",18,53,3,0,1,2.29
"3554",18,54,3,1,0,1.19
"3555",18,55,3,1,1,1.08
"3556",18,56,3,0,1,2.29
"3557",18,57,3,1,1,1.3
"3558",18,58,3,0,1,3.05
"3559",18,59,3,1,0,1.3
"3560",18,60,3,0,1,1.63
"3561",18,61,3,0,0,1.96
"3562",18,62,3,0,1,1.31
"3563",18,63,3,1,0,1.52
"3564",18,64,3,1,1,1.52
"3565",18,65,3,1,1,1.3
"3566",18,66,3,1,1,1.41
"3567",18,67,3,0,0,2.63
"3568",18,68,3,1,0,1.96
"3569",18,69,3,0,1,3.27
"3570",18,70,3,1,1,1.53
"3571",18,71,3,0,0,2.5
"3572",18,72,3,0,1,2.62
"3573",18,73,3,0,0,2.18
"3574",18,74,3,1,1,1.74
"3575",18,75,3,1,0,1.74
"3576",18,76,3,1,0,1.52
"3577",18,77,3,0,1,2.51
"3578",18,78,3,1,1,1.41
"3579",18,79,3,1,0,1.74
"3580",18,80,3,0,0,1.96
"3581",18,81,3,1,1,1.42
"3582",18,82,3,0,1,2.29
"3583",18,83,3,0,1,2.5
"3584",18,84,3,0,1,1.63
"3585",18,85,3,1,0,1.19
"3586",18,86,3,1,1,2.07
"3587",18,87,3,1,1,1.52
"3588",18,88,3,0,0,2.41
"3589",18,89,3,0,1,2.06
"3590",18,90,3,0,1,1.96
"3591",18,91,3,0,1,3.49
"3592",18,92,3,0,1,3.71
"3593",18,93,3,0,1,2.07
"3594",18,94,3,1,1,1.19
"3595",18,95,3,0,1,2.72
"3596",18,96,3,1,0,1.63
"3597",18,97,3,0,1,2.18
"3598",18,98,3,0,0,2.18
"3599",18,99,3,0,1,2.51
"3600",18,100,3,0,1,1.96
"3601",19,1,3,0,1,3.49
"3602",19,2,3,1,1,3.06
"3603",19,3,3,0,1,2.07
"3604",19,4,3,0,1,2.5
"3605",19,5,3,1,1,2.72
"3606",19,6,3,1,1,3.7
"3607",19,7,3,0,1,3.71
"3608",19,8,3,1,0,2.19
"3609",19,9,3,0,1,10.5
"3610",19,10,3,0,1,2.84
"3611",19,11,3,1,0,1.85
"3612",19,12,3,1,1,1.63
"3613",19,13,3,0,1,2.06
"3614",19,14,3,1,1,2.28
"3615",19,15,3,0,1,3.06
"3616",19,16,3,1,1,1.74
"3617",19,17,3,0,1,2.72
"3618",19,18,3,0,1,2.51
"3619",19,19,3,0,1,1.85
"3620",19,20,3,1,1,2.61
"3621",19,21,3,1,1,1.95
"3622",19,22,3,1,1,1.3
"3623",19,23,3,1,0,2.28
"3624",19,24,3,0,1,2.73
"3625",19,25,3,0,1,2.51
"3626",19,26,3,1,1,1.41
"3627",19,27,3,0,1,3.49
"3628",19,28,3,0,1,2.62
"3629",19,29,3,1,1,1.3
"3630",19,30,3,1,1,1.41
"3631",19,31,3,0,1,2.62
"3632",19,32,3,1,0,1.53
"3633",19,33,3,1,0,1.52
"3634",19,34,3,0,1,3.38
"3635",19,35,3,1,0,1.86
"3636",19,36,3,0,1,2.5
"3637",19,37,3,0,1,4.81
"3638",19,38,3,0,1,1.85
"3639",19,39,3,0,1,2.29
"3640",19,40,3,0,1,1.86
"3641",19,41,3,1,1,1.41
"3642",19,42,3,0,0,4.37
"3643",19,43,3,1,1,1.41
"3644",19,44,3,0,0,1.74
"3645",19,45,3,1,1,1.19
"3646",19,46,3,1,0,1.2
"3647",19,47,3,0,1,2.72
"3648",19,48,3,1,1,0.86
"3649",19,49,3,1,1,2.39
"3650",19,50,3,1,1,1.19
"3651",19,51,3,0,1,2.18
"3652",19,52,3,1,1,1.63
"3653",19,53,3,0,1,2.51
"3654",19,54,3,0,1,1.96
"3655",19,55,3,0,1,2.29
"3656",19,56,3,0,1,3.38
"3657",19,57,3,0,1,1.96
"3658",19,58,3,0,1,3.82
"3659",19,59,3,0,1,3.05
"3660",19,60,3,1,0,1.41
"3661",19,61,3,1,0,1.3
"3662",19,62,3,0,1,2.83
"3663",19,63,3,1,1,1.19
"3664",19,64,3,0,0,3.38
"3665",19,65,3,1,1,0.86
"3666",19,66,3,0,1,2.08
"3667",19,67,3,1,0,1.63
"3668",19,68,3,1,1,1.52
"3669",19,69,3,0,0,2.07
"3670",19,70,3,1,1,1.41
"3671",19,71,3,1,0,1.63
"3672",19,72,3,0,1,1.74
"3673",19,73,3,1,0,1.63
"3674",19,74,3,0,1,2.29
"3675",19,75,3,0,1,2.84
"3676",19,76,3,1,0,1.19
"3677",19,77,3,1,1,1.63
"3678",19,78,3,0,1,2.29
"3679",19,79,3,0,1,2.73
"3680",19,80,3,0,1,1.74
"3681",19,81,3,1,0,0.97
"3682",19,82,3,1,0,1.63
"3683",19,83,3,0,1,2.62
"3684",19,84,3,1,1,1.19
"3685",19,85,3,0,1,3.6
"3686",19,86,3,1,1,1.52
"3687",19,87,3,1,1,1.19
"3688",19,88,3,1,0,1.52
"3689",19,89,3,0,1,2.51
"3690",19,90,3,0,0,2.84
"3691",19,91,3,1,0,1.41
"3692",19,92,3,0,0,2.51
"3693",19,93,3,0,1,2.83
"3694",19,94,3,1,1,1.41
"3695",19,95,3,1,1,1.86
"3696",19,96,3,1,0,0.97
"3697",19,97,3,1,0,1.41
"3698",19,98,3,0,1,2.61
"3699",19,99,3,1,1,1.3
"3700",19,100,3,1,0,1.42
"3701",19,1,1,1,1,2.73
"3702",19,2,1,1,1,1.52
"3703",19,3,1,1,1,1.52
"3704",19,4,1,1,0,1.3
"3705",19,5,1,1,0,1.52
"3706",19,6,1,1,0,1.86
"3707",19,7,1,1,1,1.74
"3708",19,8,1,1,1,2.06
"3709",19,9,1,1,1,1.41
"3710",19,10,1,1,1,1.52
"3711",19,11,1,1,1,1.85
"3712",19,12,1,1,0,2.19
"3713",19,13,1,1,0,3.93
"3714",19,14,1,1,1,3.71
"3715",19,15,1,1,1,1.96
"3716",19,16,1,1,1,1.41
"3717",19,17,1,1,1,1.41
"3718",19,18,1,1,1,1.74
"3719",19,19,1,1,1,1.74
"3720",19,20,1,1,1,1.96
"3721",19,21,1,1,0,2.07
"3722",19,22,1,1,0,3.82
"3723",19,23,1,1,1,1.85
"3724",19,24,1,1,1,1.42
"3725",19,25,1,1,1,2.39
"3726",19,26,1,1,1,1.75
"3727",19,27,1,1,1,1.74
"3728",19,28,1,1,0,1.85
"3729",19,29,1,1,1,2.83
"3730",19,30,1,1,1,2.28
"3731",19,31,1,1,0,2.07
"3732",19,32,1,1,1,1.96
"3733",19,33,1,1,0,2.06
"3734",19,34,1,1,0,1.75
"3735",19,35,1,1,1,1.52
"3736",19,36,1,1,0,2.5
"3737",19,37,1,1,1,1.74
"3738",19,38,1,1,1,1.41
"3739",19,39,1,1,0,2.29
"3740",19,40,1,1,0,2.07
"3741",19,41,1,1,0,1.96
"3742",19,42,1,1,0,1.41
"3743",19,43,1,1,1,1.42
"3744",19,44,1,1,1,2.18
"3745",19,45,1,1,1,1.74
"3746",19,46,1,1,1,1.53
"3747",19,47,1,1,1,3.72
"3748",19,48,1,1,0,1.3
"3749",19,49,1,1,1,1.42
"3750",19,50,1,1,0,1.96
"3751",19,51,1,0,1,2.94
"3752",19,52,1,0,1,2.18
"3753",19,53,1,0,1,2.94
"3754",19,54,1,0,1,2.18
"3755",19,55,1,0,1,2.29
"3756",19,56,1,0,1,2.51
"3757",19,57,1,0,0,4.8
"3758",19,58,1,0,1,3.6
"3759",19,59,1,0,1,1.63
"3760",19,60,1,0,1,1.96
"3761",19,61,1,0,0,2.95
"3762",19,62,1,0,1,2.41
"3763",19,63,1,0,1,1.96
"3764",19,64,1,0,1,1.96
"3765",19,65,1,0,0,2.18
"3766",19,66,1,0,1,1.96
"3767",19,67,1,0,1,2.08
"3768",19,68,1,0,0,2.72
"3769",19,69,1,0,1,5.13
"3770",19,70,1,0,0,2.51
"3771",19,71,1,0,0,2.95
"3772",19,72,1,0,0,1.64
"3773",19,73,1,0,1,1.96
"3774",19,74,1,0,1,2.07
"3775",19,75,1,0,1,3.05
"3776",19,76,1,0,1,2.39
"3777",19,77,1,0,1,2.62
"3778",19,78,1,0,0,3.49
"3779",19,79,1,0,1,2.07
"3780",19,80,1,0,1,2.07
"3781",19,81,1,0,1,1.85
"3782",19,82,1,0,0,2.73
"3783",19,83,1,0,1,2.19
"3784",19,84,1,0,1,4.15
"3785",19,85,1,0,1,2.95
"3786",19,86,1,0,1,1.74
"3787",19,87,1,0,1,4.03
"3788",19,88,1,0,1,1.96
"3789",19,89,1,0,0,1.75
"3790",19,90,1,0,0,2.51
"3791",19,91,1,0,1,2.51
"3792",19,92,1,0,1,1.74
"3793",19,93,1,0,0,2.51
"3794",19,94,1,0,0,6.78
"3795",19,95,1,0,1,1.52
"3796",19,96,1,0,1,3.71
"3797",19,97,1,0,1,1.52
"3798",19,98,1,0,1,2.18
"3799",19,99,1,0,1,1.63
"3800",19,100,1,0,0,3.17
"3801",20,1,3,1,1,2.73
"3802",20,2,3,1,0,1.75
"3803",20,3,3,0,1,2.08
"3804",20,4,3,1,1,2.51
"3805",20,5,3,0,0,3.38
"3806",20,6,3,1,1,2.52
"3807",20,7,3,0,1,1.31
"3808",20,8,3,0,1,1.42
"3809",20,9,3,1,1,2.18
"3810",20,10,3,0,1,1.75
"3811",20,11,3,0,1,1.42
"3812",20,12,3,0,1,1.75
"3813",20,13,3,0,1,3.71
"3814",20,14,3,0,1,3.05
"3815",20,15,3,0,1,1.75
"3816",20,16,3,1,1,2.72
"3817",20,17,3,0,1,2.51
"3818",20,18,3,1,1,1.63
"3819",20,19,3,1,0,2.94
"3820",20,20,3,1,0,1.52
"3821",20,21,3,1,1,2.5
"3822",20,22,3,0,0,1.97
"3823",20,23,3,0,1,1.63
"3824",20,24,3,1,1,3.27
"3825",20,25,3,0,1,1.41
"3826",20,26,3,0,1,0.98
"3827",20,27,3,1,1,2.72
"3828",20,28,3,0,0,2.39
"3829",20,29,3,1,1,3.16
"3830",20,30,3,0,0,1.74
"3831",20,31,3,1,0,5.46
"3832",20,32,3,1,1,2.29
"3833",20,33,3,1,1,1.52
"3834",20,34,3,0,1,2.51
"3835",20,35,3,1,0,2.07
"3836",20,36,3,0,1,2.07
"3837",20,37,3,0,1,2.73
"3838",20,38,3,0,1,1.75
"3839",20,39,3,0,1,2.29
"3840",20,40,3,1,1,2.18
"3841",20,41,3,0,1,2.28
"3842",20,42,3,0,1,1.75
"3843",20,43,3,1,1,2.29
"3844",20,44,3,1,0,2.08
"3845",20,45,3,0,0,1.64
"3846",20,46,3,1,1,4.16
"3847",20,47,3,1,1,1.86
"3848",20,48,3,0,1,3.06
"3849",20,49,3,1,1,1.85
"3850",20,50,3,1,1,1.35
"3851",20,51,3,1,0,3.81
"3852",20,52,3,1,1,1.41
"3853",20,53,3,0,1,1.52
"3854",20,54,3,0,1,1.86
"3855",20,55,3,0,0,3.6
"3856",20,56,3,0,1,2.29
"3857",20,57,3,1,1,1.19
"3858",20,58,3,0,0,5.69
"3859",20,59,3,1,0,2.5
"3860",20,60,3,0,0,1.75
"3861",20,61,3,0,1,1.53
"3862",20,62,3,0,0,4.37
"3863",20,63,3,1,1,1.63
"3864",20,64,3,1,1,7.75
"3865",20,65,3,0,1,2.18
"3866",20,66,3,1,1,2.94
"3867",20,67,3,1,0,1.84
"3868",20,68,3,0,1,2.95
"3869",20,69,3,0,1,2.29
"3870",20,70,3,0,1,4.37
"3871",20,71,3,0,1,2.18
"3872",20,72,3,0,1,6.23
"3873",20,73,3,1,1,1.63
"3874",20,74,3,0,1,2.95
"3875",20,75,3,0,1,2.62
"3876",20,76,3,1,0,1.19
"3877",20,77,3,1,0,5.57
"3878",20,78,3,1,1,1.41
"3879",20,79,3,0,0,2.62
"3880",20,80,3,0,1,2.08
"3881",20,81,3,0,0,5.14
"3882",20,82,3,1,1,1.19
"3883",20,83,3,0,1,2.07
"3884",20,84,3,0,0,3.06
"3885",20,85,3,1,1,5.24
"3886",20,86,3,1,1,2.94
"3887",20,87,3,1,1,1.63
"3888",20,88,3,1,1,1.85
"3889",20,89,3,1,1,2.61
"3890",20,90,3,0,0,5.25
"3891",20,91,3,1,1,1.85
"3892",20,92,3,1,1,1.52
"3893",20,93,3,1,1,1.3
"3894",20,94,3,1,0,3.49
"3895",20,95,3,1,1,1.63
"3896",20,96,3,1,1,4.91
"3897",20,97,3,0,1,2.4
"3898",20,98,3,0,1,1.63
"3899",20,99,3,1,1,1.74
"3900",20,100,3,1,1,2.07
"3901",20,1,2,0,1,1.95
"3902",20,2,2,0,1,1.53
"3903",20,3,2,0,1,2.18
"3904",20,4,2,0,1,1.75
"3905",20,5,2,0,0,1.64
"3906",20,6,2,0,1,2.51
"3907",20,7,2,0,0,1.75
"3908",20,8,2,0,0,3.06
"3909",20,9,2,0,0,2.29
"3910",20,10,2,0,0,2.51
"3911",20,11,2,0,1,1.85
"3912",20,12,2,0,1,2.18
"3913",20,13,2,0,1,2.29
"3914",20,14,2,0,0,1.97
"3915",20,15,2,0,0,3.49
"3916",20,16,2,0,1,1.96
"3917",20,17,2,0,1,1.85
"3918",20,18,2,0,1,2.39
"3919",20,19,2,0,0,2.19
"3920",20,20,2,0,1,1.41
"3921",20,21,2,0,0,1.64
"3922",20,22,2,0,1,2.61
"3923",20,23,2,0,0,1.96
"3924",20,24,2,0,1,1.85
"3925",20,25,2,0,1,1.97
"3926",20,26,2,0,0,1.96
"3927",20,27,2,0,1,1.97
"3928",20,28,2,0,1,2.29
"3929",20,29,2,0,1,1.86
"3930",20,30,2,0,1,2.07
"3931",20,31,2,0,1,2.4
"3932",20,32,2,0,1,2.18
"3933",20,33,2,0,0,1.64
"3934",20,34,2,0,1,1.64
"3935",20,35,2,0,1,1.42
"3936",20,36,2,0,1,2.41
"3937",20,37,2,0,0,2.29
"3938",20,38,2,0,1,1.63
"3939",20,39,2,0,1,1.74
"3940",20,40,2,0,1,2.18
"3941",20,41,2,0,0,1.42
"3942",20,42,2,0,1,2.29
"3943",20,43,2,0,1,1.64
"3944",20,44,2,0,0,2.3
"3945",20,45,2,0,0,1.53
"3946",20,46,2,0,1,3.17
"3947",20,47,2,0,1,1.64
"3948",20,48,2,0,0,2.94
"3949",20,49,2,0,1,4.26
"3950",20,50,2,0,0,1.64
"3951",20,51,2,1,1,1.96
"3952",20,52,2,1,0,1.41
"3953",20,53,2,1,1,1.63
"3954",20,54,2,1,1,1.52
"3955",20,55,2,1,1,1.19
"3956",20,56,2,1,1,1.85
"3957",20,57,2,1,1,1.3
"3958",20,58,2,1,0,1.85
"3959",20,59,2,1,1,1.19
"3960",20,60,2,1,1,1.52
"3961",20,61,2,1,0,1.52
"3962",20,62,2,1,1,1.08
"3963",20,63,2,1,0,1.96
"3964",20,64,2,1,0,1.08
"3965",20,65,2,1,1,1.3
"3966",20,66,2,1,0,2.72
"3967",20,67,2,1,1,1.42
"3968",20,68,2,1,1,2.5
"3969",20,69,2,1,1,2.07
"3970",20,70,2,1,0,2.28
"3971",20,71,2,1,1,1.52
"3972",20,72,2,1,1,1.97
"3973",20,73,2,1,1,2.5
"3974",20,74,2,1,0,1.52
"3975",20,75,2,1,0,1.85
"3976",20,76,2,1,0,1.85
"3977",20,77,2,1,1,1.74
"3978",20,78,2,1,0,1.41
"3979",20,79,2,1,0,1.63
"3980",20,80,2,1,1,1.85
"3981",20,81,2,1,1,1.3
"3982",20,82,2,1,0,2.07
"3983",20,83,2,1,1,1.63
"3984",20,84,2,1,1,2.28
"3985",20,85,2,1,1,3.16
"3986",20,86,2,1,1,2.28
"3987",20,87,2,1,1,3.92
"3988",20,88,2,1,0,1.3
"3989",20,89,2,1,1,1.63
"3990",20,90,2,1,1,1.52
"3991",20,91,2,1,1,1.96
"3992",20,92,2,1,1,1.84
"3993",20,93,2,1,1,1.63
"3994",20,94,2,1,1,9.06
"3995",20,95,2,1,0,1.96
"3996",20,96,2,1,0,1.74
"3997",20,97,2,1,1,1.52
"3998",20,98,2,1,0,1.96
"3999",20,99,2,1,0,1.19
"4000",20,100,2,1,0,0.86
"4001",22,1,2,0,1,3.83
"4002",22,2,2,0,1,3.16
"4003",22,3,2,0,1,1.96
"4004",22,4,2,0,0,4.37
"4005",22,5,2,0,0,4.05
"4006",22,6,2,0,1,2.73
"4007",22,7,2,0,1,3.72
"4008",22,8,2,0,0,2.4
"4009",22,9,2,0,0,2.73
"4010",22,10,2,0,1,1.86
"4011",22,11,2,0,0,4.37
"4012",22,12,2,0,1,4.37
"4013",22,13,2,0,1,5.57
"4014",22,14,2,0,0,5.03
"4015",22,15,2,0,1,1.41
"4016",22,16,2,0,1,3.16
"4017",22,17,2,0,1,3.71
"4018",22,18,2,0,1,1.96
"4019",22,19,2,0,0,3.27
"4020",22,20,2,0,0,4.37
"4021",22,21,2,0,1,3.7
"4022",22,22,2,0,1,4.92
"4023",22,23,2,0,1,1.96
"4024",22,24,2,0,1,2.84
"4025",22,25,2,0,0,2.61
"4026",22,26,2,0,0,4.69
"4027",22,27,2,0,1,1.85
"4028",22,28,2,0,0,2.4
"4029",22,29,2,0,0,2.29
"4030",22,30,2,0,1,2.07
"4031",22,31,2,0,0,2.73
"4032",22,32,2,0,1,2.18
"4033",22,33,2,0,0,2.3
"4034",22,34,2,0,1,4.7
"4035",22,35,2,0,0,3.5
"4036",22,36,2,0,0,1.96
"4037",22,37,2,0,1,2.19
"4038",22,38,2,0,1,5.47
"4039",22,39,2,0,1,1.63
"4040",22,40,2,0,1,6.67
"4041",22,41,2,0,1,3.6
"4042",22,42,2,0,0,3.71
"4043",22,43,2,0,1,5.35
"4044",22,44,2,0,1,5.25
"4045",22,45,2,0,1,4.04
"4046",22,46,2,0,1,4.59
"4047",22,47,2,0,1,2.83
"4048",22,48,2,0,0,2.62
"4049",22,49,2,0,1,3.83
"4050",22,50,2,0,1,4.7
"4051",22,51,2,1,1,2.39
"4052",22,52,2,1,1,1.3
"4053",22,53,2,1,1,2.28
"4054",22,54,2,1,1,1.74
"4055",22,55,2,1,0,4.14
"4056",22,56,2,1,1,1.3
"4057",22,57,2,1,1,1.96
"4058",22,58,2,1,1,2.72
"4059",22,59,2,1,1,1.19
"4060",22,60,2,1,1,1.53
"4061",22,61,2,1,1,1.52
"4062",22,62,2,1,1,2.72
"4063",22,63,2,1,0,2.07
"4064",22,64,2,1,1,1.52
"4065",22,65,2,1,1,2.07
"4066",22,66,2,1,0,1.96
"4067",22,67,2,1,1,3.6
"4068",22,68,2,1,1,1.63
"4069",22,69,2,1,0,2.06
"4070",22,70,2,1,1,1.3
"4071",22,71,2,1,1,1.64
"4072",22,72,2,1,1,1.85
"4073",22,73,2,1,1,1.41
"4074",22,74,2,1,1,3.05
"4075",22,75,2,1,1,6.44
"4076",22,76,2,1,0,2.29
"4077",22,77,2,1,1,2.39
"4078",22,78,2,1,0,2.72
"4079",22,79,2,1,1,1.85
"4080",22,80,2,1,1,1.53
"4081",22,81,2,1,0,2.39
"4082",22,82,2,1,1,1.52
"4083",22,83,2,1,1,3.05
"4084",22,84,2,1,1,1.63
"4085",22,85,2,1,1,1.96
"4086",22,86,2,1,1,1.85
"4087",22,87,2,1,1,2.83
"4088",22,88,2,1,1,3.71
"4089",22,89,2,1,0,3.82
"4090",22,90,2,1,1,2.61
"4091",22,91,2,1,1,3.6
"4092",22,92,2,1,0,7.54
"4093",22,93,2,1,1,4.91
"4094",22,94,2,1,1,1.85
"4095",22,95,2,1,0,3.16
"4096",22,96,2,1,1,3.28
"4097",22,97,2,1,1,1.85
"4098",22,98,2,1,1,2.72
"4099",22,99,2,1,0,1.85
"4100",22,100,2,1,1,3.49
"4101",22,1,3,0,1,2.18
"4102",22,2,3,1,1,1.85
"4103",22,3,3,1,1,1.41
"4104",22,4,3,0,0,2.95
"4105",22,5,3,0,1,2.51
"4106",22,6,3,0,1,2.17
"4107",22,7,3,1,1,1.41
"4108",22,8,3,0,1,2.95
"4109",22,9,3,1,1,1.19
"4110",22,10,3,1,1,1.52
"4111",22,11,3,1,1,2.4
"4112",22,12,3,1,1,1.08
"4113",22,13,3,1,1,1.19
"4114",22,14,3,0,1,1.85
"4115",22,15,3,0,1,2.29
"4116",22,16,3,1,1,1.52
"4117",22,17,3,1,1,1.74
"4118",22,18,3,1,1,1.19
"4119",22,19,3,0,1,2.51
"4120",22,20,3,0,1,2.72
"4121",22,21,3,0,1,3.72
"4122",22,22,3,1,0,1.63
"4123",22,23,3,0,1,3.38
"4124",22,24,3,1,1,1.85
"4125",22,25,3,1,0,2.94
"4126",22,26,3,0,1,1.74
"4127",22,27,3,0,0,5.02
"4128",22,28,3,1,1,1.96
"4129",22,29,3,0,1,2.08
"4130",22,30,3,1,1,2.4
"4131",22,31,3,0,1,1.31
"4132",22,32,3,0,1,2.18
"4133",22,33,3,1,1,1.08
"4134",22,34,3,0,1,2.19
"4135",22,35,3,0,1,2.51
"4136",22,36,3,1,1,1.85
"4137",22,37,3,1,1,3.27
"4138",22,38,3,0,1,4.47
"4139",22,39,3,1,1,2.5
"4140",22,40,3,1,1,1.08
"4141",22,41,3,1,1,1.85
"4142",22,42,3,1,1,1.85
"4143",22,43,3,0,1,5.79
"4144",22,44,3,1,1,2.17
"4145",22,45,3,0,1,2.51
"4146",22,46,3,0,1,2.5
"4147",22,47,3,0,0,5.36
"4148",22,48,3,0,1,1.2
"4149",22,49,3,0,1,3.06
"4150",22,50,3,0,0,4.26
"4151",22,51,3,1,0,2.39
"4152",22,52,3,1,1,1.19
"4153",22,53,3,0,1,1.75
"4154",22,54,3,0,1,1.53
"4155",22,55,3,0,1,1.64
"4156",22,56,3,0,1,1.64
"4157",22,57,3,0,1,1.52
"4158",22,58,3,0,0,2.29
"4159",22,59,3,1,1,2.07
"4160",22,60,3,0,1,1.64
"4161",22,61,3,0,1,3.17
"4162",22,62,3,1,1,1.3
"4163",22,63,3,1,1,1.19
"4164",22,64,3,1,1,1.96
"4165",22,65,3,1,1,2.18
"4166",22,66,3,0,1,2.73
"4167",22,67,3,0,1,6.01
"4168",22,68,3,0,1,4.92
"4169",22,69,3,0,1,3.39
"4170",22,70,3,0,1,1.53
"4171",22,71,3,1,0,1.52
"4172",22,72,3,0,1,4.27
"4173",22,73,3,0,1,2.94
"4174",22,74,3,1,1,1.3
"4175",22,75,3,1,1,1.41
"4176",22,76,3,1,1,3.27
"4177",22,77,3,0,1,1.64
"4178",22,78,3,0,1,2.18
"4179",22,79,3,1,1,1.19
"4180",22,80,3,0,1,2.4
"4181",22,81,3,1,0,0.1
"4182",22,82,3,1,1,2.29
"4183",22,83,3,1,1,1.08
"4184",22,84,3,0,0,8.75
"4185",22,85,3,0,1,4.37
"4186",22,86,3,1,1,1.63
"4187",22,87,3,1,1,1.41
"4188",22,88,3,1,1,1.74
"4189",22,89,3,1,1,3.16
"4190",22,90,3,1,1,2.4
"4191",22,91,3,0,0,3.93
"4192",22,92,3,1,1,1.19
"4193",22,93,3,1,1,2.72
"4194",22,94,3,1,1,1.41
"4195",22,95,3,1,1,1.3
"4196",22,96,3,0,1,2.07
"4197",22,97,3,0,1,2.29
"4198",22,98,3,1,1,1.74
"4199",22,99,3,0,0,5.57
"4200",22,100,3,1,1,1.52
"4201",23,1,3,0,1,3.71
"4202",23,2,3,0,1,2.06
"4203",23,3,3,1,1,4.36
"4204",23,4,3,1,1,1.19
"4205",23,5,3,0,1,1.86
"4206",23,6,3,1,1,3.92
"4207",23,7,3,0,1,1.41
"4208",23,8,3,0,1,2.73
"4209",23,9,3,0,1,4.15
"4210",23,10,3,1,0,3.05
"4211",23,11,3,0,0,3.05
"4212",23,12,3,1,0,1.63
"4213",23,13,3,1,1,1.19
"4214",23,14,3,1,1,0.86
"4215",23,15,3,1,1,1.74
"4216",23,16,3,0,1,1.85
"4217",23,17,3,1,1,1.3
"4218",23,18,3,0,1,6.01
"4219",23,19,3,1,1,2.17
"4220",23,20,3,1,0,2.18
"4221",23,21,3,0,1,2.29
"4222",23,22,3,1,1,1.96
"4223",23,23,3,0,1,3.06
"4224",23,24,3,1,1,2.18
"4225",23,25,3,1,1,2.94
"4226",23,26,3,0,0,1.85
"4227",23,27,3,0,1,2.18
"4228",23,28,3,0,1,1.41
"4229",23,29,3,1,1,1.63
"4230",23,30,3,1,1,2.18
"4231",23,31,3,0,1,1.85
"4232",23,32,3,0,1,1.41
"4233",23,33,3,1,1,1.52
"4234",23,34,3,0,1,1.52
"4235",23,35,3,0,1,1.63
"4236",23,36,3,0,1,1.41
"4237",23,37,3,0,1,1.52
"4238",23,38,3,1,0,1.96
"4239",23,39,3,0,1,1.3
"4240",23,40,3,0,1,2.07
"4241",23,41,3,1,1,1.63
"4242",23,42,3,1,0,2.17
"4243",23,43,3,1,1,1.63
"4244",23,44,3,0,1,3.82
"4245",23,45,3,0,1,1.52
"4246",23,46,3,0,1,3.49
"4247",23,47,3,0,1,1.85
"4248",23,48,3,1,1,1.52
"4249",23,49,3,0,1,3.93
"4250",23,50,3,0,1,0.99
"4251",23,51,3,0,1,1.08
"4252",23,52,3,1,1,2.39
"4253",23,53,3,0,1,2.61
"4254",23,54,3,0,1,1.63
"4255",23,55,3,1,1,2.17
"4256",23,56,3,1,1,1.08
"4257",23,57,3,0,1,2.29
"4258",23,58,3,0,1,3.27
"4259",23,59,3,0,1,1.52
"4260",23,60,3,0,1,3.27
"4261",23,61,3,0,0,3.82
"4262",23,62,3,0,1,1.52
"4263",23,63,3,0,1,3.05
"4264",23,64,3,1,1,1.63
"4265",23,65,3,1,0,1.52
"4266",23,66,3,1,1,1.3
"4267",23,67,3,1,0,1.09
"4268",23,68,3,0,1,1.74
"4269",23,69,3,0,1,1.3
"4270",23,70,3,0,1,5.59
"4271",23,71,3,1,1,1.85
"4272",23,72,3,0,1,1.19
"4273",23,73,3,1,0,1.19
"4274",23,74,3,0,1,3.93
"4275",23,75,3,1,1,1.3
"4276",23,76,3,0,0,5.68
"4277",23,77,3,0,1,2.51
"4278",23,78,3,0,1,1.31
"4279",23,79,3,1,1,3.6
"4280",23,80,3,1,0,1.3
"4281",23,81,3,1,1,1.08
"4282",23,82,3,0,1,3.16
"4283",23,83,3,1,0,1.52
"4284",23,84,3,1,1,1.85
"4285",23,85,3,1,0,1.3
"4286",23,86,3,0,1,1.74
"4287",23,87,3,1,0,1.3
"4288",23,88,3,1,1,1.3
"4289",23,89,3,1,0,1.85
"4290",23,90,3,1,0,3.38
"4291",23,91,3,1,1,1.52
"4292",23,92,3,1,1,1.41
"4293",23,93,3,1,0,1.3
"4294",23,94,3,1,1,0.75
"4295",23,95,3,1,0,0.97
"4296",23,96,3,0,0,3.27
"4297",23,97,3,1,1,2.39
"4298",23,98,3,0,1,3.05
"4299",23,99,3,1,1,2.39
"4300",23,100,3,1,0,1.31
"4301",23,1,1,1,0,2.29
"4302",23,2,1,1,1,1.3
"4303",23,3,1,1,1,1.3
"4304",23,4,1,1,1,1.08
"4305",23,5,1,1,1,1.08
"4306",23,6,1,1,1,2.5
"4307",23,7,1,1,1,1.52
"4308",23,8,1,1,1,1.52
"4309",23,9,1,1,1,2.18
"4310",23,10,1,1,1,1.31
"4311",23,11,1,1,1,1.41
"4312",23,12,1,1,1,3.05
"4313",23,13,1,1,1,0.97
"4314",23,14,1,1,1,1.41
"4315",23,15,1,1,1,1.74
"4316",23,16,1,1,0,1.85
"4317",23,17,1,1,1,1.85
"4318",23,18,1,1,1,2.29
"4319",23,19,1,1,1,1.08
