"","sub","condition","trial","item","response","correct","RT"
"1",201,"HF",1,"new","new",1,"2.518"
"2",201,"HF",2,"new","new",1,"1.306"
"3",201,"HF",3,"old","old",1,"Jan 49"
"4",201,"HF",4,"old","new",0,"1.005"
"5",201,"HF",5,"new","old",0,"1.071"
"6",201,"HF",6,"old","old",1,"0.662"
"7",201,"HF",7,"old","old",1,"0.687"
"8",201,"HF",8,"new","new",1,"0.662"
"9",201,"HF",9,"old","new",0,"0.768"
"10",201,"HF",10,"new","new",1,"0.71"
"11",201,"HF",11,"old","old",1,"0.646"
"12",201,"HF",12,"new","new",1,"1.158"
"13",201,"HF",13,"old","old",1,"0.686"
"14",201,"HF",14,"old","old",1,"0.694"
"15",201,"HF",15,"new","new",1,"0.631"
"16",201,"HF",16,"old","new",0,"0.75"
"17",201,"HF",17,"new","new",1,"0.768"
"18",201,"HF",18,"new","new",1,"0.823"
"19",201,"HF",19,"old","old",1,"0.734"
"20",201,"HF",20,"old","old",1,"0.67"
"21",201,"HF",21,"old","old",1,"0.551"
"22",201,"HF",22,"old","old",1,"0.512"
"23",201,"HF",23,"old","old",1,"0.422"
"24",201,"HF",24,"old","old",1,"0.599"
"25",201,"HF",25,"old","old",1,"0.496"
"26",201,"HF",26,"new","old",0,"0.623"
"27",201,"HF",27,"old","old",1,"0.799"
"28",201,"HF",28,"new","new",1,"0.583"
"29",201,"HF",29,"new","new",1,"0.688"
"30",201,"HF",30,"new","old",0,"0.622"
"31",201,"HF",31,"old","new",0,"1.039"
"32",201,"HF",32,"new","new",1,"1.407"
"33",201,"HF",33,"old","new",0,"0.758"
"34",201,"HF",34,"new","new",1,"0.798"
"35",201,"HF",35,"new","old",0,"0.656"
"36",201,"HF",36,"new","new",1,"0.591"
"37",201,"HF",37,"old","old",1,"0.838"
"38",201,"HF",38,"old","old",1,"0.575"
"39",201,"HF",39,"new","new",1,"0.711"
"40",201,"HF",40,"new","old",0,"0.735"
"41",201,"HF",41,"new","new",1,"0.711"
"42",201,"HF",42,"old","old",1,"0.623"
"43",201,"HF",43,"new","old",0,"1.687"
"44",201,"HF",44,"new","new",1,"0.718"
"45",201,"HF",45,"new","new",1,"0.719"
"46",201,"HF",46,"new","new",1,"0.687"
"47",201,"HF",47,"new","new",1,"0.711"
"48",201,"HF",48,"old","new",0,"1.159"
"49",201,"HF",49,"old","old",1,"0.615"
"50",201,"HF",50,"old","old",1,"0.528"
"51",201,"HF",51,"new","old",0,"Jan 15"
"52",201,"HF",52,"old","old",1,"0.574"
"53",201,"HF",53,"old","new",0,"1.142"
"54",201,"HF",54,"old","new",0,"0.598"
"55",201,"HF",55,"old","old",1,"0.542"
"56",201,"HF",56,"old","old",1,"0.782"
"57",201,"HF",57,"old","old",1,"0.783"
"58",201,"HF",58,"old","old",1,"0.903"
"59",201,"HF",59,"new","new",1,"0.799"
"60",201,"HF",60,"new","new",1,"0.903"
"61",201,"HF",61,"old","old",1,"0.582"
"62",201,"HF",62,"new","old",0,"0.975"
"63",201,"HF",63,"new","new",1,"0.591"
"64",201,"HF",64,"new","new",1,"0.831"
"65",201,"HF",65,"old","new",0,"0.751"
"66",201,"HF",66,"new","old",0,"0.703"
"67",201,"HF",67,"new","new",1,"0.79"
"68",201,"HF",68,"new","new",1,"0.967"
"69",201,"HF",69,"old","old",1,"0.575"
"70",201,"HF",70,"new","new",1,"0.975"
"71",201,"HF",71,"old","old",1,"0.68"
"72",201,"HF",72,"new","new",1,"0.686"
"73",201,"HF",73,"new","old",0,"0.631"
"74",201,"HF",74,"new","new",1,"0.671"
"75",201,"HF",75,"old","old",1,"0.663"
"76",201,"HF",76,"old","old",1,"0.975"
"77",201,"HF",77,"old","old",1,"0.574"
"78",201,"HF",78,"old","new",0,"0.736"
"79",201,"HF",79,"old","old",1,"0.599"
"80",201,"HF",80,"new","new",1,"0.783"
"81",201,"HF",81,"new","new",1,"1.191"
"82",201,"HF",82,"new","new",1,"0.783"
"83",201,"HF",83,"new","new",1,"0.775"
"84",201,"HF",84,"old","old",1,"0.696"
"85",201,"HF",85,"old","old",1,"0.759"
"86",201,"HF",86,"new","old",0,"01. Aug"
"87",201,"HF",87,"old","new",0,"1.191"
"88",201,"HF",88,"old","old",1,"0.624"
"89",201,"HF",89,"new","new",1,"1.167"
"90",201,"HF",90,"new","new",1,"1.454"
"91",201,"HF",91,"new","new",1,"1.078"
"92",201,"HF",92,"new","old",0,"0.647"
"93",201,"HF",93,"new","new",1,"0.942"
"94",201,"HF",94,"old","old",1,"0.671"
"95",201,"HF",95,"old","new",0,"0.824"
"96",201,"HF",96,"new","new",1,"1.231"
"97",201,"HF",97,"old","old",1,"0.679"
"98",201,"HF",98,"new","new",1,"0.727"
"99",201,"HF",99,"old","old",1,"0.871"
"100",201,"HF",100,"new","new",1,"0.694"
"101",201,"HF",101,"new","new",1,"0.631"
"102",201,"HF",102,"new","old",0,"0.935"
"103",201,"HF",103,"new","new",1,"0.519"
"104",201,"HF",104,"old","old",1,"0.943"
"105",201,"HF",105,"new","new",1,"0.527"
"106",201,"HF",106,"old","old",1,"0.934"
"107",201,"HF",107,"new","new",1,"0.494"
"108",201,"HF",108,"old","new",0,"0.686"
"109",201,"HF",109,"new","new",1,"1.535"
"110",201,"HF",110,"old","new",0,"0.792"
"111",201,"HF",111,"new","new",1,"0.678"
"112",201,"HF",112,"old","old",1,"0.655"
"113",201,"HF",113,"new","new",1,"0.926"
"114",201,"HF",114,"old","new",0,"0.67"
"115",201,"HF",115,"old","new",0,"0.855"
"116",201,"HF",116,"old","old",1,"1.007"
"117",201,"HF",117,"new","new",1,"0.59"
"118",201,"HF",118,"old","new",0,"0.863"
"119",201,"HF",119,"old","new",0,"0.575"
"120",201,"HF",120,"old","new",0,"0.638"
"121",201,"HF",121,"new","new",1,"0.632"
"122",201,"HF",122,"old","new",0,"1.024"
"123",201,"HF",123,"new","new",1,"0.783"
"124",201,"HF",124,"old","new",0,"0.863"
"125",201,"HF",125,"new","old",0,"0.799"
"126",201,"HF",126,"old","old",1,"0.88"
"127",201,"HF",127,"old","old",1,"0.718"
"128",201,"HF",128,"old","old",1,"0.623"
"129",201,"HF",129,"new","new",1,"0.72"
"130",201,"HF",130,"new","new",1,"0.711"
"131",201,"HF",131,"old","new",0,"0.703"
"132",201,"HF",132,"old","new",0,"1.215"
"133",201,"HF",133,"old","new",0,"1.518"
"134",201,"HF",134,"new","new",1,"0.847"
"135",201,"HF",135,"old","old",1,"0.887"
"136",201,"HF",136,"new","new",1,"0.592"
"137",201,"HF",137,"new","new",1,"0.735"
"138",201,"HF",138,"old","old",1,"0.831"
"139",201,"HF",139,"old","new",0,"0.478"
"140",201,"HF",140,"new","new",1,"0.528"
"141",201,"HF",141,"old","new",0,"0.654"
"142",201,"HF",142,"new","new",1,"0.695"
"143",201,"HF",143,"old","new",0,"0.791"
"144",201,"HF",144,"new","new",1,"0.584"
"145",201,"HF",145,"old","new",0,"0.687"
"146",201,"HF",146,"new","old",0,"0.672"
"147",201,"HF",147,"new","new",1,"0.511"
"148",201,"HF",148,"new","new",1,"0.606"
"149",201,"HF",149,"old","new",0,"0.815"
"150",201,"HF",150,"new","new",1,"0.542"
"151",201,"LF",1,"new","new",1,"2.478"
"152",201,"LF",2,"new","new",1,"0.806"
"153",201,"LF",3,"old","new",0,"0.822"
"154",201,"LF",4,"new","old",0,"0.015"
"155",201,"LF",5,"old","old",1,"1.463"
"156",201,"LF",6,"old","old",1,"0.735"
"157",201,"LF",7,"new","new",1,"0.911"
"158",201,"LF",8,"old","old",1,"0.623"
"159",201,"LF",9,"old","old",1,"1.096"
"160",201,"LF",10,"new","new",1,"0.63"
"161",201,"LF",11,"new","new",1,"0.863"
"162",201,"LF",12,"old","old",1,"0.663"
"163",201,"LF",13,"new","new",1,"0.719"
"164",201,"LF",14,"new","new",1,"0.639"
"165",201,"LF",15,"old","new",0,"0.679"
"166",201,"LF",16,"old","old",1,"0.695"
"167",201,"LF",17,"new","new",1,"0.536"
"168",201,"LF",18,"old","new",0,"0.718"
"169",201,"LF",19,"new","new",1,"1.095"
"170",201,"LF",20,"new","new",1,"0.838"
"171",201,"LF",21,"old","old",1,"0.688"
"172",201,"LF",22,"old","old",1,"0.591"
"173",201,"LF",23,"old","old",1,"0.591"
"174",201,"LF",24,"old","old",1,"0.599"
"175",201,"LF",25,"old","new",0,"0.638"
"176",201,"LF",26,"new","new",1,"0.688"
"177",201,"LF",27,"new","new",1,"0.671"
"178",201,"LF",28,"old","old",1,"1.271"
"179",201,"LF",29,"old","old",1,"0.584"
"180",201,"LF",30,"old","new",0,"0.679"
"181",201,"LF",31,"old","new",0,"0.758"
"182",201,"LF",32,"old","old",1,"0.67"
"183",201,"LF",33,"old","old",1,"0.783"
"184",201,"LF",34,"new","new",1,"0.806"
"185",201,"LF",35,"old","new",0,"0.807"
"186",201,"LF",36,"old","new",0,"0.672"
"187",201,"LF",37,"old","new",0,"0.655"
"188",201,"LF",38,"new","new",1,"0.759"
"189",201,"LF",39,"new","new",1,"0.943"
"190",201,"LF",40,"new","new",1,"0.655"
"191",201,"LF",41,"new","new",1,"0.735"
"192",201,"LF",42,"old","old",1,"0.639"
"193",201,"LF",43,"old","old",1,"0.768"
"194",201,"LF",44,"old","old",1,"0.535"
"195",201,"LF",45,"new","new",1,"0.567"
"196",201,"LF",46,"old","old",1,"0.847"
"197",201,"LF",47,"new","new",1,"0.558"
"198",201,"LF",48,"old","old",1,"0.959"
"199",201,"LF",49,"new","new",1,"0.727"
"200",201,"LF",50,"new","new",1,"0.87"
"201",201,"LF",51,"old","new",0,"0.759"
"202",201,"LF",52,"old","new",0,"0.543"
"203",201,"LF",53,"new","new",1,"0.758"
"204",201,"LF",54,"old","new",0,"0.711"
"205",201,"LF",55,"new","new",1,"0.672"
"206",201,"LF",56,"old","new",0,"0.575"
"207",201,"LF",57,"old","old",1,"0.823"
"208",201,"LF",58,"new","new",1,"0.694"
"209",201,"LF",59,"new","new",1,"0.807"
"210",201,"LF",60,"new","old",0,"0.927"
"211",201,"LF",61,"new","new",1,"0.487"
"212",201,"LF",62,"old","new",0,"0.919"
"213",201,"LF",63,"new","new",1,"0.735"
"214",201,"LF",64,"old","new",0,"0.583"
"215",201,"LF",65,"old","new",0,"0.631"
"216",201,"LF",66,"old","new",0,"0.575"
"217",201,"LF",67,"old","old",1,"0.582"
"218",201,"LF",68,"new","new",1,"0.51"
"219",201,"LF",69,"new","new",1,"0.791"
"220",201,"LF",70,"old","old",1,"0.679"
"221",201,"LF",71,"new","new",1,"0.718"
"222",201,"LF",72,"old","old",1,"1.055"
"223",201,"LF",73,"old","old",1,"0.863"
"224",201,"LF",74,"new","new",1,"0.759"
"225",201,"LF",75,"old","old",1,"0.647"
"226",201,"LF",76,"new","new",1,"0.583"
"227",201,"LF",77,"new","new",1,"0.775"
"228",201,"LF",78,"new","new",1,"0.608"
"229",201,"LF",79,"old","old",1,"0.711"
"230",201,"LF",80,"old","new",0,"0.67"
"231",201,"LF",81,"new","new",1,"0.695"
"232",201,"LF",82,"new","new",1,"0.735"
"233",201,"LF",83,"new","new",1,"1.111"
"234",201,"LF",84,"new","new",1,"0.679"
"235",201,"LF",85,"old","old",1,"0.879"
"236",201,"LF",86,"old","new",0,"0.511"
"237",201,"LF",87,"old","old",1,"0.911"
"238",201,"LF",88,"old","new",0,"0.6"
"239",201,"LF",89,"old","old",1,"0.679"
"240",201,"LF",90,"new","new",1,"0.535"
"241",201,"LF",91,"new","new",1,"0.568"
"242",201,"LF",92,"old","old",1,"0.822"
"243",201,"LF",93,"new","new",1,"0.534"
"244",201,"LF",94,"new","new",1,"0.743"
"245",201,"LF",95,"new","old",0,"0.959"
"246",201,"LF",96,"new","new",1,"0.463"
"247",201,"LF",97,"old","new",0,"0.695"
"248",201,"LF",98,"old","new",0,"0.504"
"249",201,"LF",99,"old","new",0,"0.543"
"250",201,"LF",100,"new","new",1,"0.743"
"251",201,"LF",101,"new","old",0,"0.655"
"252",201,"LF",102,"old","new",0,"0.398"
"253",201,"LF",103,"old","new",0,"0.583"
"254",201,"LF",104,"new","new",1,"0.991"
"255",201,"LF",105,"new","old",0,"1.039"
"256",201,"LF",106,"old","old",1,"0.679"
"257",201,"LF",107,"new","new",1,"0.711"
"258",201,"LF",108,"old","old",1,"0.662"
"259",201,"LF",109,"old","old",1,"0.615"
"260",201,"LF",110,"new","old",0,"0.599"
"261",201,"LF",111,"old","new",0,"0.647"
"262",201,"LF",112,"old","new",0,"0.791"
"263",201,"LF",113,"new","old",0,"0.576"
"264",201,"LF",114,"new","old",0,"0.774"
"265",201,"LF",115,"new","new",1,"0.59"
"266",201,"LF",116,"new","new",1,"0.687"
"267",201,"LF",117,"old","old",1,"0.631"
"268",201,"LF",118,"old","new",0,"0.807"
"269",201,"LF",119,"new","new",1,"0.815"
"270",201,"LF",120,"old","old",1,"0.639"
"271",201,"LF",121,"old","new",0,"0.567"
"272",201,"LF",122,"new","new",1,"0.695"
"273",201,"LF",123,"new","new",1,"0.823"
"274",201,"LF",124,"old","new",0,"0.719"
"275",201,"LF",125,"old","old",1,"0.631"
"276",201,"LF",126,"new","new",1,"0.662"
"277",201,"LF",127,"old","new",0,"0.75"
"278",201,"LF",128,"old","new",0,"1.447"
"279",201,"LF",129,"old","old",1,"0.623"
"280",201,"LF",130,"new","old",0,"1.183"
"281",201,"LF",131,"new","new",1,"0.823"
"282",201,"LF",132,"new","new",1,"0.631"
"283",201,"LF",133,"new","new",1,"0.758"
"284",201,"LF",134,"new","new",1,"0.855"
"285",201,"LF",135,"old","old",1,"0.695"
"286",201,"LF",136,"new","new",1,"0.574"
"287",201,"LF",137,"new","new",1,"0.863"
"288",201,"LF",138,"new","new",1,"0.56"
"289",201,"LF",139,"old","old",1,"0.712"
"290",201,"LF",140,"new","new",1,"0.495"
"291",201,"LF",141,"old","new",0,"0.608"
"292",201,"LF",142,"old","old",1,"0.68"
"293",201,"LF",143,"old","new",0,"0.52"
"294",201,"LF",144,"new","old",0,"1.264"
"295",201,"LF",145,"old","new",0,"0.583"
"296",201,"LF",146,"new","new",1,"0.743"
"297",201,"LF",147,"new","new",1,"0.662"
"298",201,"LF",148,"new","new",1,"0.671"
"299",201,"LF",149,"new","new",1,"0.655"
"300",201,"LF",150,"new","new",1,"1.375"
"301",210,"LF",1,"new","new",1,"3.933"
"302",210,"LF",2,"old","old",1,"1.291"
"303",210,"LF",3,"old","old",1,"0.901"
"304",210,"LF",4,"new","new",1,"0.942"
"305",210,"LF",5,"old","old",1,"0.895"
"306",210,"LF",6,"old","old",1,"0.838"
"307",210,"LF",7,"new","new",1,"0.806"
"308",210,"LF",8,"new","new",1,"1.471"
"309",210,"LF",9,"new","new",1,"1.175"
"310",210,"LF",10,"new","new",1,"1.272"
"311",210,"LF",11,"old","old",1,"0.727"
"312",210,"LF",12,"new","new",1,"1.231"
"313",210,"LF",13,"old","new",0,"1.158"
"314",210,"LF",14,"new","new",1,"1.302"
"315",210,"LF",15,"new","new",1,"1.102"
"316",210,"LF",16,"new","new",1,"Jan 24"
"317",210,"LF",17,"old","new",0,"01. Mrz"
"318",210,"LF",18,"new","new",1,"0.839"
"319",210,"LF",19,"new","new",1,"0.734"
"320",210,"LF",20,"old","old",1,"0.903"
"321",210,"LF",21,"new","new",1,"0.886"
"322",210,"LF",22,"old","old",1,"0.864"
"323",210,"LF",23,"old","new",0,"1.142"
"324",210,"LF",24,"old","old",1,"0.702"
"325",210,"LF",25,"new","new",1,"0.807"
"326",210,"LF",26,"new","new",1,"1.023"
"327",210,"LF",27,"old","old",1,"0.751"
"328",210,"LF",28,"new","new",1,"01. Mrz"
"329",210,"LF",29,"old","old",1,"0.966"
"330",210,"LF",30,"old","old",1,"0.99"
"331",210,"LF",31,"new","new",1,"0.999"
"332",210,"LF",32,"old","old",1,"0.712"
"333",210,"LF",33,"new","new",1,"0.743"
"334",210,"LF",34,"old","new",0,"1.079"
"335",210,"LF",35,"new","new",1,"1.182"
"336",210,"LF",36,"old","old",1,"0.742"
"337",210,"LF",37,"old","new",0,"0.879"
"338",210,"LF",38,"old","old",1,"0.75"
"339",210,"LF",39,"old","new",0,"0.903"
"340",210,"LF",40,"new","new",1,"0.839"
"341",210,"LF",41,"new","new",1,"1.031"
"342",210,"LF",42,"new","new",1,"0.983"
"343",210,"LF",43,"old","old",1,"0.67"
"344",210,"LF",44,"new","new",1,"0.79"
"345",210,"LF",45,"old","old",1,"0.919"
"346",210,"LF",46,"new","old",0,"0.903"
"347",210,"LF",47,"new","new",1,"0.75"
"348",210,"LF",48,"new","new",1,"1.399"
"349",210,"LF",49,"old","old",1,"1.062"
"350",210,"LF",50,"old","old",1,"0.663"
"351",210,"LF",51,"old","old",1,"0.878"
"352",210,"LF",52,"new","new",1,"1.359"
"353",210,"LF",53,"new","new",1,"1.136"
"354",210,"LF",54,"old","old",1,"Jan 63"
"355",210,"LF",55,"new","new",1,"0.927"
"356",210,"LF",56,"old","old",1,"0.943"
"357",210,"LF",57,"new","new",1,"0.927"
"358",210,"LF",58,"old","old",1,"1.086"
"359",210,"LF",59,"old","new",0,"0.823"
"360",210,"LF",60,"old","new",0,"0.943"
"361",210,"LF",61,"new","new",1,"0.743"
"362",210,"LF",62,"new","new",1,"0.96"
"363",210,"LF",63,"old","old",1,"0.951"
"364",210,"LF",64,"old","old",1,"0.808"
"365",210,"LF",65,"new","new",1,"0.776"
"366",210,"LF",66,"old","new",0,"1.079"
"367",210,"LF",67,"old","old",1,"0.686"
"368",210,"LF",68,"old","old",1,"0.991"
"369",210,"LF",69,"old","new",0,"1.343"
"370",210,"LF",70,"old","new",0,"1.007"
"371",210,"LF",71,"new","new",1,"0.91"
"372",210,"LF",72,"new","new",1,"0.871"
"373",210,"LF",73,"new","new",1,"0.71"
"374",210,"LF",74,"new","new",1,"1.079"
"375",210,"LF",75,"old","new",0,"1.032"
"376",210,"LF",76,"new","new",1,"1.088"
"377",210,"LF",77,"new","new",1,"1.022"
"378",210,"LF",78,"new","new",1,"0.886"
"379",210,"LF",79,"old","old",1,"0.904"
"380",210,"LF",80,"old","new",0,"0.783"
"381",210,"LF",81,"new","new",1,"0.704"
"382",210,"LF",82,"new","new",1,"0.807"
"383",210,"LF",83,"old","new",0,"0.918"
"384",210,"LF",84,"old","old",1,"0.759"
"385",210,"LF",85,"old","old",1,"0.662"
"386",210,"LF",86,"old","old",1,"0.6"
"387",210,"LF",87,"old","old",1,"1.519"
"388",210,"LF",88,"new","new",1,"1.383"
"389",210,"LF",89,"new","new",1,"0.782"
"390",210,"LF",90,"new","new",1,"0.798"
"391",210,"LF",91,"old","old",1,"0.704"
"392",210,"LF",92,"old","new",0,"1.142"
"393",210,"LF",93,"old","new",0,"0.798"
"394",210,"LF",94,"new","new",1,"1.143"
"395",210,"LF",95,"old","old",1,"0.648"
"396",210,"LF",96,"new","old",0,"0.776"
"397",210,"LF",97,"new","new",1,"1.007"
"398",210,"LF",98,"old","new",0,"0.832"
"399",210,"LF",99,"new","new",1,"1.471"
"400",210,"LF",100,"new","old",0,"0.911"
"401",210,"LF",101,"new","old",0,"0.759"
"402",210,"LF",102,"new","new",1,"0.791"
"403",210,"LF",103,"new","new",1,"0.688"
"404",210,"LF",104,"new","old",0,"0.751"
"405",210,"LF",105,"new","old",0,"0.679"
"406",210,"LF",106,"new","new",1,"0.967"
"407",210,"LF",107,"old","new",0,"0.806"
"408",210,"LF",108,"old","old",1,"0.758"
"409",210,"LF",109,"new","new",1,"0.712"
"410",210,"LF",110,"new","new",1,"0.95"
"411",210,"LF",111,"new","new",1,"0.831"
"412",210,"LF",112,"new","new",1,"0.991"
"413",210,"LF",113,"new","new",1,"0.982"
"414",210,"LF",114,"old","new",0,"1.231"
"415",210,"LF",115,"new","new",1,"0.728"
"416",210,"LF",116,"old","old",1,"0.975"
"417",210,"LF",117,"new","new",1,"0.872"
"418",210,"LF",118,"old","old",1,"0.687"
"419",210,"LF",119,"old","new",0,"0.895"
"420",210,"LF",120,"new","new",1,"1.239"
"421",210,"LF",121,"old","new",0,"1.254"
"422",210,"LF",122,"old","old",1,"0.687"
"423",210,"LF",123,"old","old",1,"0.951"
"424",210,"LF",124,"new","new",1,"1.542"
"425",210,"LF",125,"old","old",1,"0.951"
"426",210,"LF",126,"old","old",1,"0.847"
"427",210,"LF",127,"old","new",0,"1.174"
"428",210,"LF",128,"old","new",0,"2.271"
"429",210,"LF",129,"old","new",0,"0.775"
"430",210,"LF",130,"old","new",0,"0.671"
"431",210,"LF",131,"new","old",0,"0.767"
"432",210,"LF",132,"new","new",1,"0.927"
"433",210,"LF",133,"new","new",1,"0.902"
"434",210,"LF",134,"old","new",0,"0.895"
"435",210,"LF",135,"old","new",0,"Jan 15"
"436",210,"LF",136,"new","new",1,"0.696"
"437",210,"LF",137,"new","new",1,"0.719"
"438",210,"LF",138,"new","new",1,"0.711"
"439",210,"LF",139,"old","new",0,"1.591"
"440",210,"LF",140,"new","new",1,"0.806"
"441",210,"LF",141,"old","old",1,"1.271"
"442",210,"LF",142,"old","old",1,"0.815"
"443",210,"LF",143,"new","new",1,"01. Apr"
"444",210,"LF",144,"new","new",1,"0.854"
"445",210,"LF",145,"old","old",1,"0.832"
"446",210,"LF",146,"old","new",0,"0.863"
"447",210,"LF",147,"new","new",1,"1.767"
"448",210,"LF",148,"old","old",1,"0.688"
"449",210,"LF",149,"old","new",0,"2.406"
"450",210,"LF",150,"old","old",1,"0.84"
"451",210,"HF",1,"new","old",0,"2.703"
"452",210,"HF",2,"old","new",0,"3.231"
"453",210,"HF",3,"new","new",1,"1.422"
"454",210,"HF",4,"new","old",0,"0.543"
"455",210,"HF",5,"old","new",0,"0.944"
"456",210,"HF",6,"new","new",1,"0.831"
"457",210,"HF",7,"new","new",1,"0.928"
"458",210,"HF",8,"old","new",0,"1.567"
"459",210,"HF",9,"new","new",1,"0.648"
"460",210,"HF",10,"old","old",1,"0.936"
"461",210,"HF",11,"old","old",1,"0.799"
"462",210,"HF",12,"new","new",1,"0.67"
"463",210,"HF",13,"new","new",1,"1.063"
"464",210,"HF",14,"new","new",1,"0.799"
"465",210,"HF",15,"old","new",0,"1.326"
"466",210,"HF",16,"old","old",1,"0.792"
"467",210,"HF",17,"old","new",0,"0.798"
"468",210,"HF",18,"new","new",1,"0.872"
"469",210,"HF",19,"new","new",1,"0.759"
"470",210,"HF",20,"new","new",1,"0.895"
"471",210,"HF",21,"new","new",1,"0.782"
"472",210,"HF",22,"old","old",1,"0.679"
"473",210,"HF",23,"new","old",0,"01. Dez"
"474",210,"HF",24,"new","new",1,"0.703"
"475",210,"HF",25,"old","new",0,"0.806"
"476",210,"HF",26,"new","new",1,"0.567"
"477",210,"HF",27,"new","new",1,"0.632"
"478",210,"HF",28,"new","new",1,"0.631"
"479",210,"HF",29,"old","new",0,"0.808"
"480",210,"HF",30,"old","old",1,"0.727"
"481",210,"HF",31,"new","new",1,"1.183"
"482",210,"HF",32,"old","new",0,"0.799"
"483",210,"HF",33,"old","new",0,"0.679"
"484",210,"HF",34,"new","new",1,"0.686"
"485",210,"HF",35,"old","old",1,"0.67"
"486",210,"HF",36,"new","new",1,"0.696"
"487",210,"HF",37,"new","new",1,"0.687"
"488",210,"HF",38,"new","new",1,"0.704"
"489",210,"HF",39,"old","new",0,"0.758"
"490",210,"HF",40,"old","new",0,"0.702"
"491",210,"HF",41,"old","old",1,"0.734"
"492",210,"HF",42,"old","new",0,"0.895"
"493",210,"HF",43,"old","new",0,"0.824"
"494",210,"HF",44,"old","old",1,"0.775"
"495",210,"HF",45,"new","new",1,"0.791"
"496",210,"HF",46,"old","old",1,"0.679"
"497",210,"HF",47,"old","old",1,"0.791"
"498",210,"HF",48,"old","new",0,"0.768"
"499",210,"HF",49,"new","new",1,"2.086"
"500",210,"HF",50,"old","new",0,"0.784"
"501",210,"HF",51,"new","new",1,"0.703"
"502",210,"HF",52,"old","new",0,"0.655"
"503",210,"HF",53,"new","new",1,"0.862"
"504",210,"HF",54,"new","new",1,"0.944"
"505",210,"HF",55,"new","new",1,"0.655"
"506",210,"HF",56,"new","new",1,"0.647"
"507",210,"HF",57,"new","new",1,"0.79"
"508",210,"HF",58,"new","new",1,"1.295"
"509",210,"HF",59,"old","new",0,"0.943"
"510",210,"HF",60,"old","old",1,"0.816"
"511",210,"HF",61,"old","old",1,"0.67"
"512",210,"HF",62,"old","new",0,"0.928"
"513",210,"HF",63,"new","new",1,"0.679"
"514",210,"HF",64,"old","new",0,"Jan 16"
"515",210,"HF",65,"old","new",0,"0.678"
"516",210,"HF",66,"old","new",0,"1.256"
"517",210,"HF",67,"old","new",0,"0.983"
"518",210,"HF",68,"old","new",0,"0.832"
"519",210,"HF",69,"new","new",1,"0.751"
"520",210,"HF",70,"old","old",1,"0.888"
"521",210,"HF",71,"old","old",1,"0.663"
"522",210,"HF",72,"old","old",1,"0.831"
"523",210,"HF",73,"old","old",1,"1.248"
"524",210,"HF",74,"old","old",1,"1.334"
"525",210,"HF",75,"old","new",0,"1.016"
"526",210,"HF",76,"new","new",1,"0.864"
"527",210,"HF",77,"new","new",1,"0.663"
"528",210,"HF",78,"new","old",0,"0.662"
"529",210,"HF",79,"old","new",0,"1.208"
"530",210,"HF",80,"new","new",1,"0.872"
"531",210,"HF",81,"new","new",1,"0.648"
"532",210,"HF",82,"old","new",0,"0.519"
"533",210,"HF",83,"new","new",1,"0.735"
"534",210,"HF",84,"old","old",1,"0.711"
"535",210,"HF",85,"new","old",0,"0.783"
"536",210,"HF",86,"old","old",1,"0.686"
"537",210,"HF",87,"new","new",1,"0.982"
"538",210,"HF",88,"old","new",0,"0.784"
"539",210,"HF",89,"old","new",0,"0.792"
"540",210,"HF",90,"new","new",1,"1.847"
"541",210,"HF",91,"new","new",1,"1.047"
"542",210,"HF",92,"old","old",1,"0.67"
"543",210,"HF",93,"old","new",0,"0.903"
"544",210,"HF",94,"new","new",1,"1.064"
"545",210,"HF",95,"new","new",1,"Jan 47"
"546",210,"HF",96,"new","new",1,"0.647"
"547",210,"HF",97,"old","new",0,"0.926"
"548",210,"HF",98,"new","old",0,"0.702"
"549",210,"HF",99,"old","old",1,"0.646"
"550",210,"HF",100,"old","old",1,"0.775"
"551",210,"HF",101,"new","new",1,"01. Nov"
"552",210,"HF",102,"old","new",0,"1.567"
"553",210,"HF",103,"old","old",1,"1.551"
"554",210,"HF",104,"old","old",1,"0.543"
"555",210,"HF",105,"new","new",1,"0.911"
"556",210,"HF",106,"old","new",0,"1.423"
"557",210,"HF",107,"new","new",1,"1.512"
"558",210,"HF",108,"new","new",1,"Jan 64"
"559",210,"HF",109,"new","new",1,"0.68"
"560",210,"HF",110,"old","old",1,"0.855"
"561",210,"HF",111,"old","old",1,"1.111"
"562",210,"HF",112,"old","new",0,"0.782"
"563",210,"HF",113,"new","new",1,"0.734"
"564",210,"HF",114,"old","new",0,"0.855"
"565",210,"HF",115,"new","new",1,"0.703"
"566",210,"HF",116,"old","old",1,"1.095"
"567",210,"HF",117,"old","old",1,"1.391"
"568",210,"HF",118,"new","new",1,"0.663"
"569",210,"HF",119,"new","new",1,"0.775"
"570",210,"HF",120,"new","new",1,"0.991"
"571",210,"HF",121,"new","new",1,"0.696"
"572",210,"HF",122,"new","new",1,"1.326"
"573",210,"HF",123,"old","old",1,"0.775"
"574",210,"HF",124,"new","new",1,"1.719"
"575",210,"HF",125,"new","new",1,"0.783"
"576",210,"HF",126,"old","new",0,"0.847"
"577",210,"HF",127,"old","new",0,"0.75"
"578",210,"HF",128,"old","new",0,"2.888"
"579",210,"HF",129,"new","new",1,"0.591"
"580",210,"HF",130,"new","new",1,"0.711"
"581",210,"HF",131,"old","new",0,"0.647"
"582",210,"HF",132,"old","new",0,"0.543"
"583",210,"HF",133,"new","new",1,"1.823"
"584",210,"HF",134,"new","new",1,"0.984"
"585",210,"HF",135,"new","new",1,"0.951"
"586",210,"HF",136,"old","old",1,"0.72"
"587",210,"HF",137,"new","new",1,"0.894"
"588",210,"HF",138,"new","new",1,"1.294"
"589",210,"HF",139,"old","new",0,"0.72"
"590",210,"HF",140,"old","old",1,"1.983"
"591",210,"HF",141,"old","old",1,"Jan 23"
"592",210,"HF",142,"new","new",1,"0.839"
"593",210,"HF",143,"new","new",1,"1.344"
"594",210,"HF",144,"old","new",0,"1.744"
"595",210,"HF",145,"new","old",0,"0.934"
"596",210,"HF",146,"new","new",1,"0.672"
"597",210,"HF",147,"old","new",0,"0.671"
"598",210,"HF",148,"new","new",1,"0.734"
"599",210,"HF",149,"new","old",0,"0.76"
"600",210,"HF",150,"old","new",0,"1.344"
"601",211,"LF",1,"old","old",1,"3.203"
"602",211,"LF",2,"old","old",1,"1.398"
"603",211,"LF",3,"new","new",1,"1.502"
"604",211,"LF",4,"new","old",0,"1.168"
"605",211,"LF",5,"new","new",1,"1.136"
"606",211,"LF",6,"old","new",0,"1.414"
"607",211,"LF",7,"old","old",1,"0.936"
"608",211,"LF",8,"old","old",1,"0.838"
"609",211,"LF",9,"old","old",1,"0.847"
"610",211,"LF",10,"new","new",1,"0.895"
"611",211,"LF",11,"old","old",1,"1.088"
"612",211,"LF",12,"old","old",1,"0.935"
"613",211,"LF",13,"new","old",0,"0.983"
"614",211,"LF",14,"old","old",1,"0.718"
"615",211,"LF",15,"new","new",1,"1.007"
"616",211,"LF",16,"new","new",1,"1.094"
"617",211,"LF",17,"new","new",1,"01. Apr"
"618",211,"LF",18,"old","old",1,"1.399"
"619",211,"LF",19,"old","new",0,"1.286"
"620",211,"LF",20,"old","new",0,"2.256"
"621",211,"LF",21,"new","new",1,"1.567"
"622",211,"LF",22,"old","old",1,"1.095"
"623",211,"LF",23,"old","old",1,"1.022"
"624",211,"LF",24,"new","new",1,"0.991"
"625",211,"LF",25,"old","new",0,"1.038"
"626",211,"LF",26,"new","old",0,"1.023"
"627",211,"LF",27,"old","new",0,"1"
"628",211,"LF",28,"old","new",0,"0.943"
"629",211,"LF",29,"new","new",1,"0.903"
"630",211,"LF",30,"old","new",0,"1.104"
"631",211,"LF",31,"new","old",0,"0.951"
"632",211,"LF",32,"new","old",0,"0.846"
"633",211,"LF",33,"new","new",1,"1.071"
"634",211,"LF",34,"old","old",1,"Jan 23"
"635",211,"LF",35,"old","old",1,"0.839"
"636",211,"LF",36,"new","new",1,"1.007"
"637",211,"LF",37,"old","old",1,"1.238"
"638",211,"LF",38,"new","new",1,"0.959"
"639",211,"LF",39,"new","new",1,"1.008"
"640",211,"LF",40,"new","new",1,"0.959"
"641",211,"LF",41,"old","new",0,"1.256"
"642",211,"LF",42,"old","new",0,"1.312"
"643",211,"LF",43,"old","new",0,"0.934"
"644",211,"LF",44,"new","new",1,"0.999"
"645",211,"LF",45,"new","new",1,"01. Apr"
"646",211,"LF",46,"new","new",1,"1.631"
"647",211,"LF",47,"new","new",1,"1.038"
"648",211,"LF",48,"new","old",0,"1.191"
"649",211,"LF",49,"new","new",1,"1.032"
"650",211,"LF",50,"old","old",1,"0.752"
"651",211,"LF",51,"new","new",1,"0.983"
"652",211,"LF",52,"new","old",0,"0.999"
"653",211,"LF",53,"old","old",1,"0.799"
"654",211,"LF",54,"old","new",0,"1.574"
"655",211,"LF",55,"old","old",1,"0.839"
"656",211,"LF",56,"old","old",1,"0.991"
"657",211,"LF",57,"old","old",1,"0.75"
"658",211,"LF",58,"new","old",0,"1.135"
"659",211,"LF",59,"new","new",1,"0.879"
"660",211,"LF",60,"new","new",1,"1.039"
"661",211,"LF",61,"new","new",1,"0.718"
"662",211,"LF",62,"new","new",1,"0.871"
"663",211,"LF",63,"old","old",1,"1.206"
"664",211,"LF",64,"old","new",0,"1.926"
"665",211,"LF",65,"old","old",1,"0.886"
"666",211,"LF",66,"new","new",1,"0.871"
"667",211,"LF",67,"old","new",0,"0.928"
"668",211,"LF",68,"old","old",1,"1.056"
"669",211,"LF",69,"new","new",1,"0.975"
"670",211,"LF",70,"old","old",1,"1.167"
"671",211,"LF",71,"new","new",1,"0.831"
"672",211,"LF",72,"new","new",1,"1.439"
"673",211,"LF",73,"new","new",1,"0.999"
"674",211,"LF",74,"old","old",1,"1.112"
"675",211,"LF",75,"new","new",1,"2.903"
"676",211,"LF",76,"old","old",1,"1.079"
"677",211,"LF",77,"old","old",1,"0.935"
"678",211,"LF",78,"old","old",1,"0.798"
"679",211,"LF",79,"new","new",1,"01. Mrz"
"680",211,"LF",80,"new","new",1,"1.111"
"681",211,"LF",81,"new","new",1,"1.414"
"682",211,"LF",82,"new","new",1,"0.895"
"683",211,"LF",83,"old","old",1,"0.928"
"684",211,"LF",84,"old","old",1,"2.198"
"685",211,"LF",85,"new","new",1,"1.064"
"686",211,"LF",86,"old","new",0,"0.991"
"687",211,"LF",87,"old","new",0,"0.784"
"688",211,"LF",88,"new","old",0,"1.038"
"689",211,"LF",89,"new","old",0,"0.792"
"690",211,"LF",90,"new","new",1,"0.798"
"691",211,"LF",91,"new","new",1,"4.151"
"692",211,"LF",92,"old","old",1,"0.958"
"693",211,"LF",93,"old","old",1,"0.742"
"694",211,"LF",94,"old","new",0,"Feb 56"
"695",211,"LF",95,"new","new",1,"1.127"
"696",211,"LF",96,"old","old",1,"1.175"
"697",211,"LF",97,"old","new",0,"1.231"
"698",211,"LF",98,"new","new",1,"1.206"
"699",211,"LF",99,"new","old",0,"1.439"
"700",211,"LF",100,"old","old",1,"0.822"
"701",211,"LF",101,"old","old",1,"2.215"
"702",211,"LF",102,"new","new",1,"0.966"
"703",211,"LF",103,"old","old",1,"0.984"
"704",211,"LF",104,"new","old",0,"0.902"
"705",211,"LF",105,"old","new",0,"0.806"
"706",211,"LF",106,"old","new",0,"1.448"
"707",211,"LF",107,"old","new",0,"1.063"
"708",211,"LF",108,"old","new",0,"1.655"
"709",211,"LF",109,"old","new",0,"0.848"
"710",211,"LF",110,"new","new",1,"0.879"
"711",211,"LF",111,"new","new",1,"1.185"
"712",211,"LF",112,"old","new",0,"1.047"
"713",211,"LF",113,"new","new",1,"0.911"
"714",211,"LF",114,"new","new",1,"1.046"
"715",211,"LF",115,"old","new",0,"01. Jul"
"716",211,"LF",116,"new","new",1,"0.838"
"717",211,"LF",117,"new","old",0,"0.95"
"718",211,"LF",118,"old","new",0,"1.198"
"719",211,"LF",119,"new","new",1,"0.918"
"720",211,"LF",120,"new","new",1,"2.487"
"721",211,"LF",121,"old","new",0,"0.831"
"722",211,"LF",122,"new","new",1,"0.838"
"723",211,"LF",123,"old","old",1,"0.895"
"724",211,"LF",124,"old","new",0,"1.152"
"725",211,"LF",125,"old","old",1,"Jan 27"
"726",211,"LF",126,"new","new",1,"0.872"
"727",211,"LF",127,"new","new",1,"0.79"
"728",211,"LF",128,"new","new",1,"0.832"
"729",211,"LF",129,"new","new",1,"2.407"
"730",211,"LF",130,"new","old",0,"0.718"
"731",211,"LF",131,"old","old",1,"1.328"
"732",211,"LF",132,"new","new",1,"1.262"
"733",211,"LF",133,"old","new",0,"5.072"
"734",211,"LF",134,"old","new",0,"0.888"
"735",211,"LF",135,"new","new",1,"1.014"
"736",211,"LF",136,"old","new",0,"2.024"
"737",211,"LF",137,"old","old",1,"1.112"
"738",211,"LF",138,"old","new",0,"1.103"
"739",211,"LF",139,"old","old",1,"1.758"
"740",211,"LF",140,"new","new",1,"0.92"
"741",211,"LF",141,"old","new",0,"1.016"
"742",211,"LF",142,"new","new",1,"1.519"
"743",211,"LF",143,"new","new",1,"0.735"
"744",211,"LF",144,"new","new",1,"0.848"
"745",211,"LF",145,"new","new",1,"0.838"
"746",211,"LF",146,"old","old",1,"1.287"
"747",211,"LF",147,"old","new",0,"1.126"
"748",211,"LF",148,"old","new",0,"1.063"
"749",211,"LF",149,"new","new",1,"0.991"
"750",211,"LF",150,"new","new",1,"1.327"
"751",211,"HF",1,"new","new",1,"05. Sep"
"752",211,"HF",2,"old","old",1,"0.751"
"753",211,"HF",3,"old","old",1,"0.816"
"754",211,"HF",4,"old","new",0,"0.744"
"755",211,"HF",5,"new","new",1,"0.759"
"756",211,"HF",6,"new","new",1,"0.816"
"757",211,"HF",7,"new","new",1,"0.663"
"758",211,"HF",8,"old","old",1,"1.175"
"759",211,"HF",9,"new","new",1,"0.679"
"760",211,"HF",10,"old","old",1,"0.848"
"761",211,"HF",11,"new","new",1,"0.902"
"762",211,"HF",12,"old","new",0,"0.704"
"763",211,"HF",13,"new","new",1,"0.871"
"764",211,"HF",14,"old","old",1,"0.903"
"765",211,"HF",15,"new","old",0,"1.232"
"766",211,"HF",16,"new","old",0,"1.183"
"767",211,"HF",17,"new","new",1,"0.687"
"768",211,"HF",18,"new","new",1,"1.071"
"769",211,"HF",19,"new","new",1,"0.839"
"770",211,"HF",20,"old","old",1,"0.806"
"771",211,"HF",21,"new","new",1,"0.975"
"772",211,"HF",22,"old","new",0,"2.879"
"773",211,"HF",23,"new","new",1,"1.015"
"774",211,"HF",24,"old","new",0,"0.846"
"775",211,"HF",25,"new","new",1,"1.343"
"776",211,"HF",26,"new","new",1,"1.663"
"777",211,"HF",27,"old","old",1,"1.415"
"778",211,"HF",28,"old","old",1,"0.854"
"779",211,"HF",29,"old","old",1,"1.239"
"780",211,"HF",30,"old","old",1,"0.791"
"781",211,"HF",31,"new","new",1,"0.99"
"782",211,"HF",32,"new","new",1,"1.366"
"783",211,"HF",33,"new","new",1,"1.375"
"784",211,"HF",34,"old","new",0,"1.544"
"785",211,"HF",35,"new","new",1,"0.943"
"786",211,"HF",36,"new","new",1,"01. Feb"
"787",211,"HF",37,"old","new",0,"1.424"
"788",211,"HF",38,"old","new",0,"1.423"
"789",211,"HF",39,"old","old",1,"0.872"
"790",211,"HF",40,"new","new",1,"Feb 24"
"791",211,"HF",41,"old","new",0,"0.71"
"792",211,"HF",42,"new","old",0,"0.958"
"793",211,"HF",43,"new","old",0,"0.758"
"794",211,"HF",44,"old","old",1,"0.751"
"795",211,"HF",45,"old","old",1,"1.559"
"796",211,"HF",46,"old","new",0,"0.823"
"797",211,"HF",47,"old","new",0,"1.016"
"798",211,"HF",48,"old","old",1,"1.231"
"799",211,"HF",49,"old","new",0,"1.231"
"800",211,"HF",50,"old","new",0,"0.807"
"801",211,"HF",51,"old","new",0,"0.696"
"802",211,"HF",52,"new","old",0,"1.255"
"803",211,"HF",53,"new","new",1,"0.712"
"804",211,"HF",54,"new","old",0,"1.294"
"805",211,"HF",55,"old","new",0,"2.174"
"806",211,"HF",56,"old","new",0,"0.815"
"807",211,"HF",57,"old","new",0,"2.783"
"808",211,"HF",58,"old","old",1,"1.031"
"809",211,"HF",59,"new","new",1,"1.974"
"810",211,"HF",60,"new","new",1,"0.918"
"811",211,"HF",61,"new","new",1,"0.695"
"812",211,"HF",62,"new","new",1,"0.678"
"813",211,"HF",63,"new","new",1,"0.958"
"814",211,"HF",64,"old","new",0,"1.094"
"815",211,"HF",65,"old","old",1,"1.151"
"816",211,"HF",66,"new","new",1,"1.855"
"817",211,"HF",67,"old","old",1,"3.511"
"818",211,"HF",68,"old","new",0,"0.824"
"819",211,"HF",69,"old","old",1,"Jan 27"
"820",211,"HF",70,"new","new",1,"1.088"
"821",211,"HF",71,"new","new",1,"0.702"
"822",211,"HF",72,"new","new",1,"0.84"
"823",211,"HF",73,"new","old",0,"0.942"
"824",211,"HF",74,"new","new",1,"0.791"
"825",211,"HF",75,"old","new",0,"0.759"
"826",211,"HF",76,"old","new",0,"2.247"
"827",211,"HF",77,"old","new",0,"0.751"
"828",211,"HF",78,"old","new",0,"1.047"
"829",211,"HF",79,"new","new",1,"0.718"
"830",211,"HF",80,"new","new",1,"0.928"
"831",211,"HF",81,"new","new",1,"0.743"
"832",211,"HF",82,"new","new",1,"0.984"
"833",211,"HF",83,"old","old",1,"0.68"
"834",211,"HF",84,"new","new",1,"1.823"
"835",211,"HF",85,"old","new",0,"1.295"
"836",211,"HF",86,"new","old",0,"1.238"
"837",211,"HF",87,"old","new",0,"0.974"
"838",211,"HF",88,"new","new",1,"0.672"
"839",211,"HF",89,"old","old",1,"Jan 91"
"840",211,"HF",90,"old","new",0,"0.791"
"841",211,"HF",91,"new","new",1,"0.927"
"842",211,"HF",92,"new","new",1,"2.566"
"843",211,"HF",93,"new","new",1,"0.664"
"844",211,"HF",94,"old","new",0,"1.063"
"845",211,"HF",95,"old","new",0,"0.775"
"846",211,"HF",96,"old","new",0,"2.326"
"847",211,"HF",97,"new","new",1,"0.848"
"848",211,"HF",98,"new","new",1,"0.934"
"849",211,"HF",99,"new","new",1,"0.608"
"850",211,"HF",100,"new","new",1,"0.728"
"851",211,"HF",101,"new","new",1,"1.176"
"852",211,"HF",102,"old","new",0,"2.119"
"853",211,"HF",103,"old","new",0,"2.103"
"854",211,"HF",104,"new","new",1,"0.904"
"855",211,"HF",105,"new","new",1,"1.318"
"856",211,"HF",106,"new","new",1,"0.647"
"857",211,"HF",107,"old","old",1,"2.103"
"858",211,"HF",108,"new","new",1,"0.64"
"859",211,"HF",109,"new","new",1,"0.752"
"860",211,"HF",110,"new","new",1,"0.847"
"861",211,"HF",111,"new","old",0,"0.878"
"862",211,"HF",112,"old","new",0,"1.398"
"863",211,"HF",113,"old","new",0,"0.791"
"864",211,"HF",114,"old","new",0,"0.646"
"865",211,"HF",115,"old","old",1,"0.776"
"866",211,"HF",116,"new","new",1,"Jan 67"
"867",211,"HF",117,"new","new",1,"0.975"
"868",211,"HF",118,"old","old",1,"Jan 19"
"869",211,"HF",119,"old","new",0,"01. Aug"
"870",211,"HF",120,"old","new",0,"0.926"
"871",211,"HF",121,"old","new",0,"0.79"
"872",211,"HF",122,"old","old",1,"1.206"
"873",211,"HF",123,"old","new",0,"0.687"
"874",211,"HF",124,"new","new",1,"0.718"
"875",211,"HF",125,"old","new",0,"0.63"
"876",211,"HF",126,"old","new",0,"1.247"
"877",211,"HF",127,"new","new",1,"0.759"
"878",211,"HF",128,"old","old",1,"1.143"
"879",211,"HF",129,"new","old",0,"2.407"
"880",211,"HF",130,"old","new",0,"0.767"
"881",211,"HF",131,"new","old",0,"1.872"
"882",211,"HF",132,"old","new",0,"0.759"
"883",211,"HF",133,"new","new",1,"0.839"
"884",211,"HF",134,"new","new",1,"1.207"
"885",211,"HF",135,"old","new",0,"0.951"
"886",211,"HF",136,"new","new",1,"0.879"
"887",211,"HF",137,"new","new",1,"0.991"
"888",211,"HF",138,"old","new",0,"0.976"
"889",211,"HF",139,"old","new",0,"2.574"
"890",211,"HF",140,"old","new",0,"0.871"
"891",211,"HF",141,"old","new",0,"0.726"
"892",211,"HF",142,"old","old",1,"4.166"
"893",211,"HF",143,"new","new",1,"1.015"
"894",211,"HF",144,"new","new",1,"0.726"
"895",211,"HF",145,"new","new",1,"1.198"
"896",211,"HF",146,"old","new",0,"1.055"
"897",211,"HF",147,"old","new",0,"1.112"
"898",211,"HF",148,"new","new",1,"1.247"
"899",211,"HF",149,"new","new",1,"1.431"
"900",211,"HF",150,"old","new",0,"0.735"
"901",212,"LF",1,"old","old",1,"4.841"
"902",212,"LF",2,"old","old",1,"2.047"
"903",212,"LF",3,"new","new",1,"1.199"
"904",212,"LF",4,"new","new",1,"1.326"
"905",212,"LF",5,"new","new",1,"1.063"
"906",212,"LF",6,"old","old",1,"0.863"
"907",212,"LF",7,"new","old",0,"0.743"
"908",212,"LF",8,"old","old",1,"0.943"
"909",212,"LF",9,"old","old",1,"0.655"
"910",212,"LF",10,"new","new",1,"0.814"
"911",212,"LF",11,"new","new",1,"0.846"
"912",212,"LF",12,"old","old",1,"0.662"
"913",212,"LF",13,"old","old",1,"1.063"
"914",212,"LF",14,"new","new",1,"0.887"
"915",212,"LF",15,"old","new",0,"1.359"
"916",212,"LF",16,"old","new",0,"0.847"
"917",212,"LF",17,"old","old",1,"0.896"
"918",212,"LF",18,"new","new",1,"1.646"
"919",212,"LF",19,"old","new",0,"0.662"
"920",212,"LF",20,"new","new",1,"0.712"
"921",212,"LF",21,"new","new",1,"1.415"
"922",212,"LF",22,"old","new",0,"1.551"
"923",212,"LF",23,"new","new",1,"0.655"
"924",212,"LF",24,"new","new",1,"0.591"
"925",212,"LF",25,"new","new",1,"0.526"
"926",212,"LF",26,"new","new",1,"0.479"
"927",212,"LF",27,"new","new",1,"0.694"
"928",212,"LF",28,"old","old",1,"0.774"
"929",212,"LF",29,"new","new",1,"0.511"
"930",212,"LF",30,"new","new",1,"0.766"
"931",212,"LF",31,"new","new",1,"0.494"
"932",212,"LF",32,"new","new",1,"0.615"
"933",212,"LF",33,"old","new",0,"0.414"
"934",212,"LF",34,"new","old",0,"0.976"
"935",212,"LF",35,"new","new",1,"0.927"
"936",212,"LF",36,"old","old",1,"1.455"
"937",212,"LF",37,"new","new",1,"1.206"
"938",212,"LF",38,"old","old",1,"0.608"
"939",212,"LF",39,"old","new",0,"0.943"
"940",212,"LF",40,"old","old",1,"0.792"
"941",212,"LF",41,"new","old",0,"0.71"
"942",212,"LF",42,"new","new",1,"0.623"
"943",212,"LF",43,"new","new",1,"0.878"
"944",212,"LF",44,"new","new",1,"0.591"
"945",212,"LF",45,"old","new",0,"0.543"
"946",212,"LF",46,"new","old",0,"1.919"
"947",212,"LF",47,"old","old",1,"0.704"
"948",212,"LF",48,"old","old",1,"0.574"
"949",212,"LF",49,"old","old",1,"0.703"
"950",212,"LF",50,"new","new",1,"0.79"
"951",212,"LF",51,"new","new",1,"0.744"
"952",212,"LF",52,"old","old",1,"0.664"
"953",212,"LF",53,"old","old",1,"0.879"
"954",212,"LF",54,"old","new",0,"1.063"
"955",212,"LF",55,"old","old",1,"0.807"
"956",212,"LF",56,"new","new",1,"1.271"
"957",212,"LF",57,"new","old",0,"Jan 59"
"958",212,"LF",58,"new","old",0,"0.622"
"959",212,"LF",59,"old","old",1,"0.719"
"960",212,"LF",60,"new","old",0,"0.623"
"961",212,"LF",61,"new","new",1,"0.607"
"962",212,"LF",62,"old","old",1,"0.631"
"963",212,"LF",63,"old","old",1,"0.712"
"964",212,"LF",64,"old","old",1,"1.015"
"965",212,"LF",65,"old","old",1,"0.646"
"966",212,"LF",66,"new","old",0,"0.639"
"967",212,"LF",67,"old","old",1,"0.959"
"968",212,"LF",68,"new","new",1,"0.766"
"969",212,"LF",69,"old","old",1,"0.791"
"970",212,"LF",70,"new","new",1,"0.64"
"971",212,"LF",71,"old","new",0,"0.583"
"972",212,"LF",72,"new","old",0,"0.728"
"973",212,"LF",73,"old","new",0,"0.847"
"974",212,"LF",74,"new","new",1,"0.784"
"975",212,"LF",75,"new","new",1,"0.608"
"976",212,"LF",76,"old","new",0,"0.542"
"977",212,"LF",77,"new","new",1,"1.334"
"978",212,"LF",78,"new","new",1,"Feb 43"
"979",212,"LF",79,"old","new",0,"0.775"
"980",212,"LF",80,"new","new",1,"0.566"
"981",212,"LF",81,"new","new",1,"0.352"
"982",212,"LF",82,"old","old",1,"0.806"
"983",212,"LF",83,"old","old",1,"0.935"
"984",212,"LF",84,"old","old",1,"0.75"
"985",212,"LF",85,"new","old",0,"0.64"
"986",212,"LF",86,"new","old",0,"0.622"
"987",212,"LF",87,"old","new",0,"0.062"
"988",212,"LF",88,"new","old",0,"1.656"
"989",212,"LF",89,"old","new",0,"0.808"
"990",212,"LF",90,"new","old",0,"0.72"
"991",212,"LF",91,"new","old",0,"0.615"
"992",212,"LF",92,"old","old",1,"0.719"
"993",212,"LF",93,"old","old",1,"0.783"
"994",212,"LF",94,"new","new",1,"0.584"
"995",212,"LF",95,"new","new",1,"0.599"
"996",212,"LF",96,"old","new",0,"0.567"
"997",212,"LF",97,"old","old",1,"0.824"
"998",212,"LF",98,"new","new",1,"0.831"
"999",212,"LF",99,"old","new",0,"0.671"
"1000",212,"LF",100,"new","new",1,"1.159"
"1001",212,"LF",101,"old","old",1,"0.936"
"1002",212,"LF",102,"new","new",1,"1.695"
"1003",212,"LF",103,"new","new",1,"0.791"
"1004",212,"LF",104,"new","new",1,"1.271"
"1005",212,"LF",105,"old","new",0,"0.766"
"1006",212,"LF",106,"old","new",0,"0.6"
"1007",212,"LF",107,"new","new",1,"0.383"
"1008",212,"LF",108,"old","old",1,"0.703"
"1009",212,"LF",109,"new","old",0,"02. Feb"
"1010",212,"LF",110,"old","old",1,"1.102"
"1011",212,"LF",111,"new","old",0,"1.263"
"1012",212,"LF",112,"old","old",1,"0.647"
"1013",212,"LF",113,"old","old",1,"0.775"
"1014",212,"LF",114,"old","new",0,"0.839"
"1015",212,"LF",115,"new","old",0,"0.383"
"1016",212,"LF",116,"old","old",1,"0.766"
"1017",212,"LF",117,"new","new",1,"1.231"
"1018",212,"LF",118,"old","old",1,"1.047"
"1019",212,"LF",119,"old","old",1,"0.543"
"1020",212,"LF",120,"new","old",0,"0.423"
"1021",212,"LF",121,"old","old",1,"0.583"
"1022",212,"LF",122,"old","new",0,"0.848"
"1023",212,"LF",123,"new","old",0,"0.582"
"1024",212,"LF",124,"new","old",0,"0.359"
"1025",212,"LF",125,"new","old",0,"0.358"
"1026",212,"LF",126,"new","old",0,"0.374"
"1027",212,"LF",127,"new","old",0,"0.438"
"1028",212,"LF",128,"old","new",0,"0.552"
"1029",212,"LF",129,"old","old",1,"0.319"
"1030",212,"LF",130,"old","new",0,"0.568"
"1031",212,"LF",131,"new","new",1,"0.558"
"1032",212,"LF",132,"new","new",1,"0.294"
"1033",212,"LF",133,"new","new",1,"0.422"
"1034",212,"LF",134,"old","new",0,"0.534"
"1035",212,"LF",135,"old","new",0,"0.606"
"1036",212,"LF",136,"old","old",1,"2.191"
"1037",212,"LF",137,"old","old",1,"0.815"
"1038",212,"LF",138,"old","old",1,"1.191"
"1039",212,"LF",139,"new","new",1,"1.134"
"1040",212,"LF",140,"new","new",1,"1.102"
"1041",212,"LF",141,"old","old",1,"0.736"
"1042",212,"LF",142,"old","new",0,"0.687"
"1043",212,"LF",143,"new","new",1,"0.535"
"1044",212,"LF",144,"new","old",0,"1.279"
"1045",212,"LF",145,"old","new",0,"2"
"1046",212,"LF",146,"old","new",0,"1.503"
"1047",212,"LF",147,"new","old",0,"Jan 99"
"1048",212,"LF",148,"old","new",0,"1"
"1049",212,"LF",149,"old","new",0,"1.543"
"1050",212,"LF",150,"old","new",0,"1.399"
"1051",212,"HF",1,"old","new",0,"2.514"
"1052",212,"HF",2,"old","new",0,"0.766"
"1053",212,"HF",3,"new","new",1,"0.744"
"1054",212,"HF",4,"old","old",1,"2.511"
"1055",212,"HF",5,"new","new",1,"0.894"
"1056",212,"HF",6,"new","new",1,"0.864"
"1057",212,"HF",7,"new","old",0,"1.087"
"1058",212,"HF",8,"old","old",1,"0.696"
"1059",212,"HF",9,"old","new",0,"0.774"
"1060",212,"HF",10,"old","old",1,"0.583"
"1061",212,"HF",11,"new","old",0,"1.151"
"1062",212,"HF",12,"new","new",1,"0.823"
"1063",212,"HF",13,"old","old",1,"1.056"
"1064",212,"HF",14,"old","old",1,"0.695"
"1065",212,"HF",15,"old","new",0,"0.791"
"1066",212,"HF",16,"old","new",0,"0.704"
"1067",212,"HF",17,"old","new",0,"0.783"
"1068",212,"HF",18,"old","old",1,"0.671"
"1069",212,"HF",19,"old","new",0,"0.703"
"1070",212,"HF",20,"new","new",1,"0.854"
"1071",212,"HF",21,"old","new",0,"0.854"
"1072",212,"HF",22,"old","old",1,"0.767"
"1073",212,"HF",23,"new","old",0,"0.599"
"1074",212,"HF",24,"new","old",0,"1.382"
"1075",212,"HF",25,"old","new",0,"0.551"
"1076",212,"HF",26,"new","old",0,"0.679"
"1077",212,"HF",27,"old","old",1,"0.736"
"1078",212,"HF",28,"old","old",1,"0.751"
"1079",212,"HF",29,"new","old",0,"0.608"
"1080",212,"HF",30,"old","old",1,"1.119"
"1081",212,"HF",31,"new","old",0,"0.568"
"1082",212,"HF",32,"old","old",1,"0.656"
"1083",212,"HF",33,"old","old",1,"0.655"
"1084",212,"HF",34,"new","old",0,"1.398"
"1085",212,"HF",35,"old","old",1,"0.615"
"1086",212,"HF",36,"old","new",0,"0.728"
"1087",212,"HF",37,"new","old",0,"0.686"
"1088",212,"HF",38,"old","new",0,"0.744"
"1089",212,"HF",39,"old","new",0,"0.927"
"1090",212,"HF",40,"new","new",1,"0.647"
"1091",212,"HF",41,"old","new",0,"Jan 15"
"1092",212,"HF",42,"new","new",1,"0.687"
"1093",212,"HF",43,"new","old",0,"0.878"
"1094",212,"HF",44,"new","old",0,"0.848"
"1095",212,"HF",45,"new","new",1,"0.648"
"1096",212,"HF",46,"old","new",0,"1.264"
"1097",212,"HF",47,"old","new",0,"0.672"
"1098",212,"HF",48,"new","new",1,"1.695"
"1099",212,"HF",49,"new","new",1,"0.83"
"1100",212,"HF",50,"new","new",1,"0.734"
"1101",212,"HF",51,"old","new",0,"0.56"
"1102",212,"HF",52,"new","old",0,"0.831"
"1103",212,"HF",53,"new","new",1,"0.751"
"1104",212,"HF",54,"old","new",0,"0.511"
"1105",212,"HF",55,"old","new",0,"0.415"
"1106",212,"HF",56,"new","new",1,"0.352"
"1107",212,"HF",57,"old","new",0,"0.575"
"1108",212,"HF",58,"new","new",1,"0.767"
"1109",212,"HF",59,"old","new",0,"0.415"
"1110",212,"HF",60,"new","new",1,"0.382"
"1111",212,"HF",61,"new","new",1,"0.496"
"1112",212,"HF",62,"new","new",1,"0.575"
"1113",212,"HF",63,"new","new",1,"0.447"
"1114",212,"HF",64,"old","new",0,"0.495"
"1115",212,"HF",65,"new","new",1,"0.584"
"1116",212,"HF",66,"old","new",0,"1.567"
"1117",212,"HF",67,"new","new",1,"0.503"
"1118",212,"HF",68,"old","new",0,"0.574"
"1119",212,"HF",69,"new","new",1,"0.767"
"1120",212,"HF",70,"new","old",0,"01. Feb"
"1121",212,"HF",71,"old","new",0,"0.582"
"1122",212,"HF",72,"new","old",0,"0.792"
"1123",212,"HF",73,"old","old",1,"0.703"
"1124",212,"HF",74,"old","old",1,"0.728"
"1125",212,"HF",75,"old","old",1,"0.751"
"1126",212,"HF",76,"new","new",1,"0.79"
"1127",212,"HF",77,"new","new",1,"0.584"
"1128",212,"HF",78,"new","new",1,"0.43"
"1129",212,"HF",79,"new","new",1,"0.423"
"1130",212,"HF",80,"old","new",0,"0.519"
"1131",212,"HF",81,"old","old",1,"0.303"
"1132",212,"HF",82,"new","new",1,"0.856"
"1133",212,"HF",83,"new","new",1,"1.375"
"1134",212,"HF",84,"new","new",1,"0.863"
"1135",212,"HF",85,"new","new",1,"1.552"
"1136",212,"HF",86,"old","new",0,"1.342"
"1137",212,"HF",87,"old","old",1,"0.655"
"1138",212,"HF",88,"new","new",1,"0.376"
"1139",212,"HF",89,"old","new",0,"0.951"
"1140",212,"HF",90,"old","new",0,"1.031"
"1141",212,"HF",91,"old","new",0,"0.823"
"1142",212,"HF",92,"old","new",0,"1.407"
"1143",212,"HF",93,"old","new",0,"0.798"
"1144",212,"HF",94,"old","old",1,"0.751"
"1145",212,"HF",95,"new","new",1,"0.694"
"1146",212,"HF",96,"old","new",0,"0.76"
"1147",212,"HF",97,"old","old",1,"0.758"
"1148",212,"HF",98,"new","old",0,"0.672"
"1149",212,"HF",99,"new","new",1,"0.808"
"1150",212,"HF",100,"old","new",0,"0.928"
"1151",212,"HF",101,"new","new",1,"0.767"
"1152",212,"HF",102,"old","old",1,"1.239"
"1153",212,"HF",103,"new","new",1,"1.255"
"1154",212,"HF",104,"new","new",1,"1.312"
"1155",212,"HF",105,"old","old",1,"0.872"
"1156",212,"HF",106,"new","old",0,"0.607"
"1157",212,"HF",107,"new","new",1,"0.654"
"1158",212,"HF",108,"new","new",1,"0.871"
"1159",212,"HF",109,"new","new",1,"0.87"
"1160",212,"HF",110,"new","new",1,"0.775"
"1161",212,"HF",111,"old","old",1,"1.158"
"1162",212,"HF",112,"old","old",1,"0.839"
"1163",212,"HF",113,"new","new",1,"0.703"
"1164",212,"HF",114,"new","old",0,"0.776"
"1165",212,"HF",115,"new","old",0,"0.743"
"1166",212,"HF",116,"old","new",0,"0.504"
"1167",212,"HF",117,"new","new",1,"0.599"
"1168",212,"HF",118,"old","new",0,"0.399"
"1169",212,"HF",119,"new","new",1,"0.366"
"1170",212,"HF",120,"new","old",0,"1.319"
"1171",212,"HF",121,"old","new",0,"0.351"
"1172",212,"HF",122,"old","old",1,"0.351"
"1173",212,"HF",123,"old","new",0,"0.312"
"1174",212,"HF",124,"new","old",0,"0.247"
"1175",212,"HF",125,"old","new",0,"0.264"
"1176",212,"HF",126,"new","old",0,"0.318"
"1177",212,"HF",127,"new","new",1,"0.416"
"1178",212,"HF",128,"old","old",1,"0.312"
"1179",212,"HF",129,"new","new",1,"0.311"
"1180",212,"HF",130,"old","old",1,"0.367"
"1181",212,"HF",131,"new","new",1,"0.359"
"1182",212,"HF",132,"old","new",0,"0.502"
"1183",212,"HF",133,"old","new",0,"Jan 27"
"1184",212,"HF",134,"old","new",0,"1.222"
"1185",212,"HF",135,"new","new",1,"0.911"
"1186",212,"HF",136,"old","new",0,"0.768"
"1187",212,"HF",137,"old","new",0,"0.616"
"1188",212,"HF",138,"new","new",1,"0.526"
"1189",212,"HF",139,"old","new",0,"0.584"
"1190",212,"HF",140,"old","old",1,"0.439"
"1191",212,"HF",141,"new","new",1,"0.287"
"1192",212,"HF",142,"old","old",1,"0.015"
"1193",212,"HF",143,"new","new",1,"0.047"
"1194",212,"HF",144,"new","new",1,"1.814"
"1195",212,"HF",145,"old","old",1,"0.982"
"1196",212,"HF",146,"new","old",0,"0.927"
"1197",212,"HF",147,"old","old",1,"0.591"
"1198",212,"HF",148,"new","old",0,"0.599"
"1199",212,"HF",149,"new","new",1,"0.464"
"1200",212,"HF",150,"new","new",1,"0.927"
"1201",213,"LF",1,"new","new",1,"1.862"
"1202",213,"LF",2,"new","new",1,"1.927"
"1203",213,"LF",3,"old","old",1,"1.182"
"1204",213,"LF",4,"new","old",0,"0.927"
"1205",213,"LF",5,"old","old",1,"0.847"
"1206",213,"LF",6,"new","old",0,"0.959"
"1207",213,"LF",7,"old","old",1,"0.735"
"1208",213,"LF",8,"old","old",1,"0.8"
"1209",213,"LF",9,"old","old",1,"0.607"
"1210",213,"LF",10,"old","old",1,"0.966"
"1211",213,"LF",11,"new","new",1,"1.095"
"1212",213,"LF",12,"old","old",1,"0.663"
"1213",213,"LF",13,"new","new",1,"0.687"
"1214",213,"LF",14,"new","old",0,"0.631"
"1215",213,"LF",15,"new","new",1,"0.744"
"1216",213,"LF",16,"new","new",1,"0.824"
"1217",213,"LF",17,"new","new",1,"0.71"
"1218",213,"LF",18,"new","new",1,"0.728"
"1219",213,"LF",19,"old","old",1,"0.846"
"1220",213,"LF",20,"old","new",0,"1.208"
"1221",213,"LF",21,"old","old",1,"0.67"
"1222",213,"LF",22,"old","old",1,"0.599"
"1223",213,"LF",23,"new","new",1,"1.399"
"1224",213,"LF",24,"new","old",0,"0.592"
"1225",213,"LF",25,"new","new",1,"01. Apr"
"1226",213,"LF",26,"old","old",1,"0.662"
"1227",213,"LF",27,"new","new",1,"0.718"
"1228",213,"LF",28,"old","old",1,"0.68"
"1229",213,"LF",29,"new","new",1,"0.711"
"1230",213,"LF",30,"old","old",1,"0.656"
"1231",213,"LF",31,"old","old",1,"0.879"
"1232",213,"LF",32,"new","new",1,"2.968"
"1233",213,"LF",33,"old","old",1,"0.87"
"1234",213,"LF",34,"old","new",0,"1.824"
"1235",213,"LF",35,"new","old",0,"0.703"
"1236",213,"LF",36,"new","new",1,"0.768"
"1237",213,"LF",37,"new","new",1,"1.023"
"1238",213,"LF",38,"new","new",1,"0.663"
"1239",213,"LF",39,"old","old",1,"0.792"
"1240",213,"LF",40,"new","new",1,"0.711"
"1241",213,"LF",41,"old","old",1,"0.583"
"1242",213,"LF",42,"new","new",1,"0.72"
"1243",213,"LF",43,"new","new",1,"0.728"
"1244",213,"LF",44,"old","new",0,"0.71"
"1245",213,"LF",45,"old","old",1,"0.582"
"1246",213,"LF",46,"old","old",1,"0.775"
"1247",213,"LF",47,"old","old",1,"0.59"
"1248",213,"LF",48,"old","old",1,"0.559"
"1249",213,"LF",49,"old","old",1,"0.928"
"1250",213,"LF",50,"new","old",0,"0.71"
"1251",213,"LF",51,"new","new",1,"0.768"
"1252",213,"LF",52,"old","old",1,"0.663"
"1253",213,"LF",53,"old","old",1,"0.647"
"1254",213,"LF",54,"old","old",1,"1.103"
"1255",213,"LF",55,"old","old",1,"0.887"
"1256",213,"LF",56,"old","old",1,"0.703"
"1257",213,"LF",57,"new","old",0,"0.758"
"1258",213,"LF",58,"old","new",0,"0.71"
"1259",213,"LF",59,"old","old",1,"1.544"
"1260",213,"LF",60,"old","new",0,"1.614"
"1261",213,"LF",61,"new","new",1,"0.927"
"1262",213,"LF",62,"old","old",1,"0.567"
"1263",213,"LF",63,"new","new",1,"0.992"
"1264",213,"LF",64,"new","old",0,"0.638"
"1265",213,"LF",65,"new","new",1,"0.711"
"1266",213,"LF",66,"new","old",0,"0.711"
"1267",213,"LF",67,"old","new",0,"0.614"
"1268",213,"LF",68,"old","old",1,"0.742"
"1269",213,"LF",69,"old","old",1,"0.664"
"1270",213,"LF",70,"new","new",1,"0.688"
"1271",213,"LF",71,"old","old",1,"0.598"
"1272",213,"LF",72,"new","new",1,"0.84"
"1273",213,"LF",73,"new","new",1,"0.718"
"1274",213,"LF",74,"old","old",1,"0.575"
"1275",213,"LF",75,"old","old",1,"0.606"
"1276",213,"LF",76,"new","new",1,"0.767"
"1277",213,"LF",77,"new","new",1,"0.672"
"1278",213,"LF",78,"old","new",0,"1.775"
"1279",213,"LF",79,"old","old",1,"0.582"
"1280",213,"LF",80,"old","old",1,"0.694"
"1281",213,"LF",81,"new","new",1,"0.784"
"1282",213,"LF",82,"new","new",1,"0.862"
"1283",213,"LF",83,"new","old",0,"0.51"
"1284",213,"LF",84,"new","new",1,"0.663"
"1285",213,"LF",85,"new","old",0,"0.711"
"1286",213,"LF",86,"new","new",1,"0.831"
"1287",213,"LF",87,"new","old",0,"0.566"
"1288",213,"LF",88,"old","old",1,"0.775"
"1289",213,"LF",89,"new","old",0,"0.784"
"1290",213,"LF",90,"old","old",1,"0.63"
"1291",213,"LF",91,"old","old",1,"0.815"
"1292",213,"LF",92,"old","old",1,"1.966"
"1293",213,"LF",93,"new","old",0,"1.456"
"1294",213,"LF",94,"new","new",1,"0.727"
"1295",213,"LF",95,"new","old",0,"0.767"
"1296",213,"LF",96,"old","old",1,"0.695"
"1297",213,"LF",97,"old","old",1,"0.647"
"1298",213,"LF",98,"new","new",1,"0.8"
"1299",213,"LF",99,"old","old",1,"0.807"
"1300",213,"LF",100,"new","new",1,"2.622"
"1301",213,"LF",101,"old","new",0,"1.207"
"1302",213,"LF",102,"new","old",0,"4.128"
"1303",213,"LF",103,"old","old",1,"0.704"
"1304",213,"LF",104,"new","old",0,"1.246"
"1305",213,"LF",105,"new","old",0,"0.911"
"1306",213,"LF",106,"old","old",1,"0.72"
"1307",213,"LF",107,"old","old",1,"0.678"
"1308",213,"LF",108,"new","new",1,"0.791"
"1309",213,"LF",109,"new","old",0,"0.615"
"1310",213,"LF",110,"old","old",1,"0.64"
"1311",213,"LF",111,"new","new",1,"3.423"
"1312",213,"LF",112,"old","new",0,"1.359"
"1313",213,"LF",113,"old","old",1,"2.928"
"1314",213,"LF",114,"old","old",1,"1.072"
"1315",213,"LF",115,"old","new",0,"2.742"
"1316",213,"LF",116,"old","new",0,"0.75"
"1317",213,"LF",117,"new","new",1,"1.104"
"1318",213,"LF",118,"new","old",0,"1.168"
"1319",213,"LF",119,"new","new",1,"0.831"
"1320",213,"LF",120,"new","new",1,"1.287"
"1321",213,"LF",121,"new","new",1,"01. Aug"
"1322",213,"LF",122,"old","old",1,"1.006"
"1323",213,"LF",123,"old","old",1,"0.935"
"1324",213,"LF",124,"new","old",0,"0.887"
"1325",213,"LF",125,"old","new",0,"0.808"
"1326",213,"LF",126,"new","new",1,"0.878"
"1327",213,"LF",127,"new","old",0,"1.271"
"1328",213,"LF",128,"new","new",1,"0.766"
"1329",213,"LF",129,"old","old",1,"0.671"
"1330",213,"LF",130,"old","old",1,"1.007"
"1331",213,"LF",131,"old","new",0,"0.847"
"1332",213,"LF",132,"new","new",1,"0.831"
"1333",213,"LF",133,"old","old",1,"2.102"
"1334",213,"LF",134,"old","new",0,"0.695"
"1335",213,"LF",135,"old","old",1,"0.775"
"1336",213,"LF",136,"new","new",1,"2.359"
"1337",213,"LF",137,"old","old",1,"0.646"
"1338",213,"LF",138,"new","new",1,"1.399"
"1339",213,"LF",139,"old","old",1,"0.663"
"1340",213,"LF",140,"old","new",0,"0.92"
"1341",213,"LF",141,"old","old",1,"0.639"
"1342",213,"LF",142,"new","new",1,"0.744"
"1343",213,"LF",143,"new","old",0,"1.335"
"1344",213,"LF",144,"new","new",1,"2.399"
"1345",213,"LF",145,"new","new",1,"0.734"
"1346",213,"LF",146,"new","old",0,"0.735"
"1347",213,"LF",147,"old","old",1,"Jan 19"
"1348",213,"LF",148,"new","new",1,"1.015"
"1349",213,"LF",149,"new","new",1,"1.015"
"1350",213,"LF",150,"old","old",1,"0.718"
"1351",213,"HF",1,"new","new",1,"2.313"
"1352",213,"HF",2,"old","old",1,"1.526"
"1353",213,"HF",3,"new","new",1,"0.863"
"1354",213,"HF",4,"new","new",1,"0.976"
"1355",213,"HF",5,"new","new",1,"0.791"
"1356",213,"HF",6,"old","old",1,"1.311"
"1357",213,"HF",7,"new","old",0,"1.046"
"1358",213,"HF",8,"old","old",1,"1.311"
"1359",213,"HF",9,"old","old",1,"2.047"
"1360",213,"HF",10,"new","new",1,"0.687"
"1361",213,"HF",11,"old","old",1,"0.719"
"1362",213,"HF",12,"old","old",1,"0.895"
"1363",213,"HF",13,"new","new",1,"1.383"
"1364",213,"HF",14,"old","old",1,"0.68"
"1365",213,"HF",15,"old","old",1,"0.656"
"1366",213,"HF",16,"new","new",1,"1.151"
"1367",213,"HF",17,"new","new",1,"Jan 39"
"1368",213,"HF",18,"old","old",1,"0.527"
"1369",213,"HF",19,"new","new",1,"0.663"
"1370",213,"HF",20,"old","old",1,"0.783"
"1371",213,"HF",21,"old","old",1,"0.888"
"1372",213,"HF",22,"old","old",1,"0.759"
"1373",213,"HF",23,"old","new",0,"0.824"
"1374",213,"HF",24,"new","new",1,"2.847"
"1375",213,"HF",25,"new","new",1,"0.983"
"1376",213,"HF",26,"old","old",1,"0.568"
"1377",213,"HF",27,"old","old",1,"1.176"
"1378",213,"HF",28,"old","old",1,"1.311"
"1379",213,"HF",29,"new","old",0,"1.543"
"1380",213,"HF",30,"new","new",1,"0.966"
"1381",213,"HF",31,"new","old",0,"2.695"
"1382",213,"HF",32,"new","new",1,"01. Feb"
"1383",213,"HF",33,"new","new",1,"0.687"
"1384",213,"HF",34,"old","old",1,"0.591"
"1385",213,"HF",35,"old","old",1,"1.191"
"1386",213,"HF",36,"new","new",1,"1.391"
"1387",213,"HF",37,"new","new",1,"1.008"
"1388",213,"HF",38,"new","new",1,"01. Jun"
"1389",213,"HF",39,"new","new",1,"1.615"
"1390",213,"HF",40,"old","old",1,"0.598"
"1391",213,"HF",41,"old","old",1,"0.679"
"1392",213,"HF",42,"new","old",0,"1.496"
"1393",213,"HF",43,"new","new",1,"0.791"
"1394",213,"HF",44,"old","old",1,"0.734"
"1395",213,"HF",45,"old","old",1,"1.527"
"1396",213,"HF",46,"new","new",1,"1.831"
"1397",213,"HF",47,"old","old",1,"0.583"
"1398",213,"HF",48,"new","new",1,"1.072"
"1399",213,"HF",49,"old","new",0,"1.079"
"1400",213,"HF",50,"new","old",0,"0.624"
"1401",213,"HF",51,"new","old",0,"2.352"
"1402",213,"HF",52,"old","old",1,"0.655"
"1403",213,"HF",53,"old","old",1,"0.767"
"1404",213,"HF",54,"new","new",1,"0.862"
"1405",213,"HF",55,"old","old",1,"0.583"
"1406",213,"HF",56,"new","new",1,"01. Jun"
"1407",213,"HF",57,"new","new",1,"1.326"
"1408",213,"HF",58,"old","old",1,"0.592"
"1409",213,"HF",59,"new","new",1,"1.535"
"1410",213,"HF",60,"new","old",0,"0.575"
"1411",213,"HF",61,"new","new",1,"1.719"
"1412",213,"HF",62,"old","old",1,"0.527"
"1413",213,"HF",63,"new","new",1,"1.488"
"1414",213,"HF",64,"old","old",1,"1.879"
"1415",213,"HF",65,"old","old",1,"0.734"
"1416",213,"HF",66,"old","old",1,"0.822"
"1417",213,"HF",67,"new","new",1,"1.239"
"1418",213,"HF",68,"old","old",1,"0.654"
"1419",213,"HF",69,"old","old",1,"0.759"
"1420",213,"HF",70,"new","old",0,"2.232"
"1421",213,"HF",71,"old","old",1,"0.543"
"1422",213,"HF",72,"new","new",1,"2.087"
"1423",213,"HF",73,"new","old",0,"1.448"
"1424",213,"HF",74,"new","old",0,"0.727"
"1425",213,"HF",75,"old","old",1,"0.567"
"1426",213,"HF",76,"old","old",1,"1.223"
"1427",213,"HF",77,"old","old",1,"0.736"
"1428",213,"HF",78,"new","old",0,"0.8"
"1429",213,"HF",79,"new","old",0,"0.592"
"1430",213,"HF",80,"old","old",1,"0.743"
"1431",213,"HF",81,"old","new",0,"1.312"
"1432",213,"HF",82,"new","old",0,"0.558"
"1433",213,"HF",83,"new","old",0,"1.199"
"1434",213,"HF",84,"old","new",0,"1.336"
"1435",213,"HF",85,"new","new",1,"1.167"
"1436",213,"HF",86,"new","old",0,"0.736"
"1437",213,"HF",87,"old","old",1,"0.718"
"1438",213,"HF",88,"new","old",0,"0.968"
"1439",213,"HF",89,"new","new",1,"0.59"
"1440",213,"HF",90,"new","new",1,"0.983"
"1441",213,"HF",91,"new","new",1,"1.279"
"1442",213,"HF",92,"new","old",0,"0.638"
"1443",213,"HF",93,"old","new",0,"0.583"
"1444",213,"HF",94,"old","old",1,"0.719"
"1445",213,"HF",95,"new","old",0,"3.471"
"1446",213,"HF",96,"old","old",1,"0.752"
"1447",213,"HF",97,"old","old",1,"1.031"
"1448",213,"HF",98,"old","old",1,"0.862"
"1449",213,"HF",99,"old","new",0,"1.663"
"1450",213,"HF",100,"old","old",1,"0.607"
"1451",213,"HF",101,"new","new",1,"0.799"
"1452",213,"HF",102,"old","old",1,"1.126"
"1453",213,"HF",103,"new","new",1,"1.168"
"1454",213,"HF",104,"old","old",1,"0.574"
"1455",213,"HF",105,"new","new",1,"0.878"
"1456",213,"HF",106,"old","old",1,"1.927"
"1457",213,"HF",107,"new","new",1,"0.64"
"1458",213,"HF",108,"new","old",0,"1.927"
"1459",213,"HF",109,"new","new",1,"0.719"
"1460",213,"HF",110,"old","old",1,"0.76"
"1461",213,"HF",111,"old","old",1,"1.751"
"1462",213,"HF",112,"old","new",0,"1.655"
"1463",213,"HF",113,"new","new",1,"0.783"
"1464",213,"HF",114,"old","old",1,"0.591"
"1465",213,"HF",115,"new","new",1,"3.975"
"1466",213,"HF",116,"new","new",1,"0.782"
"1467",213,"HF",117,"old","old",1,"0.504"
"1468",213,"HF",118,"new","new",1,"0.76"
"1469",213,"HF",119,"new","new",1,"1.798"
"1470",213,"HF",120,"old","old",1,"0.887"
"1471",213,"HF",121,"old","old",1,"3.134"
"1472",213,"HF",122,"new","old",0,"2.143"
"1473",213,"HF",123,"old","old",1,"0.67"
"1474",213,"HF",124,"new","new",1,"2.087"
"1475",213,"HF",125,"new","old",0,"0.655"
"1476",213,"HF",126,"new","old",0,"0.848"
"1477",213,"HF",127,"new","old",0,"1.023"
"1478",213,"HF",128,"old","old",1,"2.175"
"1479",213,"HF",129,"old","old",1,"01. Apr"
"1480",213,"HF",130,"new","new",1,"0.839"
"1481",213,"HF",131,"old","old",1,"0.983"
"1482",213,"HF",132,"old","old",1,"1.182"
"1483",213,"HF",133,"new","new",1,"0.991"
"1484",213,"HF",134,"new","new",1,"1.024"
"1485",213,"HF",135,"old","old",1,"0.718"
"1486",213,"HF",136,"old","new",0,"0.8"
"1487",213,"HF",137,"old","new",0,"Jan 23"
"1488",213,"HF",138,"old","old",1,"0.607"
"1489",213,"HF",139,"new","new",1,"0.567"
"1490",213,"HF",140,"new","new",1,"1.248"
"1491",213,"HF",141,"old","old",1,"2.975"
"1492",213,"HF",142,"new","old",0,"0.998"
"1493",213,"HF",143,"old","old",1,"0.655"
"1494",213,"HF",144,"old","old",1,"0.775"
"1495",213,"HF",145,"old","old",1,"1.039"
"1496",213,"HF",146,"old","old",1,"0.719"
"1497",213,"HF",147,"new","new",1,"0.703"
"1498",213,"HF",148,"old","old",1,"0.663"
"1499",213,"HF",149,"old","old",1,"1.023"
"1500",213,"HF",150,"new","new",1,"0.767"
"1501",214,"LF",1,"new","new",1,"8.167"
"1502",214,"LF",2,"old","old",1,"1.702"
"1503",214,"LF",3,"old","new",0,"3.639"
"1504",214,"LF",4,"new","new",1,"1.424"
"1505",214,"LF",5,"old","old",1,"1.119"
"1506",214,"LF",6,"old","old",1,"0.782"
"1507",214,"LF",7,"new","new",1,"1.639"
"1508",214,"LF",8,"new","new",1,"1.511"
"1509",214,"LF",9,"old","new",0,"Jan 31"
"1510",214,"LF",10,"old","old",1,"2.159"
"1511",214,"LF",11,"old","new",0,"1.823"
"1512",214,"LF",12,"new","new",1,"1.262"
"1513",214,"LF",13,"old","new",0,"1.064"
"1514",214,"LF",14,"old","old",1,"0.92"
"1515",214,"LF",15,"new","old",0,"1.454"
"1516",214,"LF",16,"old","new",0,"2.456"
"1517",214,"LF",17,"new","new",1,"1.159"
"1518",214,"LF",18,"old","old",1,"0.926"
"1519",214,"LF",19,"new","new",1,"0.935"
"1520",214,"LF",20,"new","new",1,"1.127"
"1521",214,"LF",21,"new","new",1,"01. Mrz"
"1522",214,"LF",22,"new","new",1,"6.647"
"1523",214,"LF",23,"old","new",0,"0.91"
"1524",214,"LF",24,"new","new",1,"0.751"
"1525",214,"LF",25,"old","old",1,"0.783"
"1526",214,"LF",26,"new","new",1,"0.935"
"1527",214,"LF",27,"old","old",1,"1.063"
"1528",214,"LF",28,"new","new",1,"1.142"
"1529",214,"LF",29,"old","new",0,"2.208"
"1530",214,"LF",30,"new","new",1,"3.336"
"1531",214,"LF",31,"new","new",1,"1.198"
"1532",214,"LF",32,"old","old",1,"4.015"
"1533",214,"LF",33,"old","old",1,"0.879"
"1534",214,"LF",34,"new","new",1,"0.791"
"1535",214,"LF",35,"new","old",0,"01. Feb"
"1536",214,"LF",36,"new","new",1,"1.015"
"1537",214,"LF",37,"new","new",1,"1.064"
"1538",214,"LF",38,"old","old",1,"0.888"
"1539",214,"LF",39,"new","new",1,"0.864"
"1540",214,"LF",40,"old","old",1,"0.88"
"1541",214,"LF",41,"old","old",1,"0.935"
"1542",214,"LF",42,"old","new",0,"1.014"
"1543",214,"LF",43,"old","old",1,"0.959"
"1544",214,"LF",44,"old","old",1,"2.495"
"1545",214,"LF",45,"new","new",1,"0.95"
"1546",214,"LF",46,"new","new",1,"1.055"
"1547",214,"LF",47,"new","new",1,"3.351"
"1548",214,"LF",48,"new","new",1,"1.824"
"1549",214,"LF",49,"old","new",0,"Mai 39"
"1550",214,"LF",50,"new","new",1,"4.911"
"1551",214,"LF",51,"old","new",0,"3.583"
"1552",214,"LF",52,"old","new",0,"Mrz 55"
"1553",214,"LF",53,"new","new",1,"3.871"
"1554",214,"LF",54,"old","new",0,"0.854"
"1555",214,"LF",55,"new","new",1,"1.816"
"1556",214,"LF",56,"old","old",1,"1.312"
"1557",214,"LF",57,"new","old",0,"1.208"
"1558",214,"LF",58,"new","new",1,"0.816"
"1559",214,"LF",59,"old","new",0,"0.919"
"1560",214,"LF",60,"old","old",1,"0.8"
"1561",214,"LF",61,"old","old",1,"0.83"
"1562",214,"LF",62,"new","new",1,"0.856"
"1563",214,"LF",63,"new","new",1,"1.103"
"1564",214,"LF",64,"old","new",0,"1.216"
"1565",214,"LF",65,"old","old",1,"0.966"
"1566",214,"LF",66,"old","new",0,"0.863"
"1567",214,"LF",67,"new","new",1,"1.967"
"1568",214,"LF",68,"old","old",1,"0.944"
"1569",214,"LF",69,"new","new",1,"0.814"
"1570",214,"LF",70,"old","old",1,"Jan 44"
"1571",214,"LF",71,"new","new",1,"0.886"
"1572",214,"LF",72,"old","new",0,"1.078"
"1573",214,"LF",73,"old","old",1,"0.815"
"1574",214,"LF",74,"new","new",1,"01. Mrz"
"1575",214,"LF",75,"old","new",0,"1.063"
"1576",214,"LF",76,"old","new",0,"0.814"
"1577",214,"LF",77,"old","old",1,"0.719"
"1578",214,"LF",78,"old","new",0,"1.127"
"1579",214,"LF",79,"new","new",1,"01. Apr"
"1580",214,"LF",80,"old","new",0,"0.966"
"1581",214,"LF",81,"old","new",0,"1.991"
"1582",214,"LF",82,"new","new",1,"1.624"
"1583",214,"LF",83,"old","new",0,"0.776"
"1584",214,"LF",84,"old","old",1,"1.398"
"1585",214,"LF",85,"new","new",1,"0.896"
"1586",214,"LF",86,"new","new",1,"1.312"
"1587",214,"LF",87,"new","new",1,"1.359"
"1588",214,"LF",88,"new","new",1,"2.974"
"1589",214,"LF",89,"new","old",0,"01. Dez"
"1590",214,"LF",90,"old","old",1,"1.174"
"1591",214,"LF",91,"old","new",0,"1.456"
"1592",214,"LF",92,"new","new",1,"1.015"
"1593",214,"LF",93,"new","new",1,"1.406"
"1594",214,"LF",94,"old","old",1,"0.68"
"1595",214,"LF",95,"old","new",0,"Apr 72"
"1596",214,"LF",96,"new","new",1,"Jan 76"
"1597",214,"LF",97,"new","new",1,"0.951"
"1598",214,"LF",98,"old","new",0,"0.87"
"1599",214,"LF",99,"old","old",1,"0.823"
"1600",214,"LF",100,"old","old",1,"0.911"
"1601",214,"LF",101,"new","new",1,"1.391"
"1602",214,"LF",102,"new","new",1,"0.784"
"1603",214,"LF",103,"new","new",1,"1.399"
"1604",214,"LF",104,"new","new",1,"1.016"
"1605",214,"LF",105,"new","new",1,"0.976"
"1606",214,"LF",106,"old","old",1,"0.854"
"1607",214,"LF",107,"new","new",1,"0.974"
"1608",214,"LF",108,"old","new",0,"1.576"
"1609",214,"LF",109,"new","new",1,"1.406"
"1610",214,"LF",110,"new","new",1,"1.214"
"1611",214,"LF",111,"new","new",1,"1.686"
"1612",214,"LF",112,"old","old",1,"2.688"
"1613",214,"LF",113,"new","new",1,"0.782"
"1614",214,"LF",114,"old","old",1,"0.815"
"1615",214,"LF",115,"old","new",0,"2.103"
"1616",214,"LF",116,"new","new",1,"1.344"
"1617",214,"LF",117,"new","new",1,"2.382"
"1618",214,"LF",118,"old","new",0,"3.934"
"1619",214,"LF",119,"new","new",1,"0.91"
"1620",214,"LF",120,"old","old",1,"0.758"
"1621",214,"LF",121,"old","old",1,"0.776"
"1622",214,"LF",122,"new","new",1,"1.072"
"1623",214,"LF",123,"old","old",1,"3.664"
"1624",214,"LF",124,"new","new",1,"0.736"
"1625",214,"LF",125,"old","new",0,"0.888"
"1626",214,"LF",126,"old","new",0,"0.91"
"1627",214,"LF",127,"new","new",1,"1.167"
"1628",214,"LF",128,"new","new",1,"1.839"
"1629",214,"LF",129,"old","old",1,"0.983"
"1630",214,"LF",130,"new","new",1,"0.687"
"1631",214,"LF",131,"old","new",0,"1"
"1632",214,"LF",132,"old","new",0,"2.736"
"1633",214,"LF",133,"old","new",0,"0.959"
"1634",214,"LF",134,"new","new",1,"0.991"
"1635",214,"LF",135,"new","new",1,"1.519"
"1636",214,"LF",136,"old","old",1,"3.584"
"1637",214,"LF",137,"new","new",1,"0.056"
"1638",214,"LF",138,"new","new",1,"Mai 28"
"1639",214,"LF",139,"new","new",1,"4.111"
"1640",214,"LF",140,"new","new",1,"1.094"
"1641",214,"LF",141,"old","new",0,"0.863"
"1642",214,"LF",142,"old","new",0,"1.008"
"1643",214,"LF",143,"new","new",1,"0.95"
"1644",214,"LF",144,"old","old",1,"1.687"
"1645",214,"LF",145,"new","new",1,"0.135"
"1646",214,"LF",146,"new","new",1,"5.591"
"1647",214,"LF",147,"old","old",1,"1.182"
"1648",214,"LF",148,"new","new",1,"2.647"
"1649",214,"LF",149,"old","new",0,"4.672"
"1650",214,"LF",150,"old","new",0,"1.438"
"1651",214,"HF",1,"old","old",1,"3.204"
"1652",214,"HF",2,"old","old",1,"4.192"
"1653",214,"HF",3,"old","new",0,"4.926"
"1654",214,"HF",4,"old","new",0,"1.038"
"1655",214,"HF",5,"old","new",0,"1.007"
"1656",214,"HF",6,"old","new",0,"Jan 23"
"1657",214,"HF",7,"old","old",1,"0.752"
"1658",214,"HF",8,"old","new",0,"2.295"
"1659",214,"HF",9,"old","new",0,"0.807"
"1660",214,"HF",10,"new","new",1,"0.823"
"1661",214,"HF",11,"old","new",0,"1.174"
"1662",214,"HF",12,"new","new",1,"0.975"
"1663",214,"HF",13,"new","new",1,"0.726"
"1664",214,"HF",14,"old","old",1,"2.303"
"1665",214,"HF",15,"new","new",1,"1.535"
"1666",214,"HF",16,"old","old",1,"0.951"
"1667",214,"HF",17,"old","old",1,"1.224"
"1668",214,"HF",18,"old","new",0,"2.296"
"1669",214,"HF",19,"new","old",0,"1.679"
"1670",214,"HF",20,"new","new",1,"1.031"
"1671",214,"HF",21,"old","new",0,"2.223"
"1672",214,"HF",22,"new","new",1,"1.071"
"1673",214,"HF",23,"new","new",1,"1.111"
"1674",214,"HF",24,"new","new",1,"1.271"
"1675",214,"HF",25,"new","new",1,"1.176"
"1676",214,"HF",26,"old","old",1,"1.014"
"1677",214,"HF",27,"old","old",1,"2.423"
"1678",214,"HF",28,"old","old",1,"1.639"
"1679",214,"HF",29,"old","old",1,"1.736"
"1680",214,"HF",30,"old","new",0,"1.119"
"1681",214,"HF",31,"new","new",1,"0.902"
"1682",214,"HF",32,"new","new",1,"0.815"
"1683",214,"HF",33,"new","new",1,"0.895"
"1684",214,"HF",34,"old","old",1,"5.359"
"1685",214,"HF",35,"new","new",1,"0.895"
"1686",214,"HF",36,"new","new",1,"1.839"
"1687",214,"HF",37,"new","new",1,"2.896"
"1688",214,"HF",38,"old","new",0,"1.015"
"1689",214,"HF",39,"new","new",1,"0.878"
"1690",214,"HF",40,"new","old",0,"1.591"
"1691",214,"HF",41,"new","new",1,"1.798"
"1692",214,"HF",42,"old","new",0,"0.744"
"1693",214,"HF",43,"new","new",1,"0.84"
"1694",214,"HF",44,"old","new",0,"1.038"
"1695",214,"HF",45,"old","new",0,"1.232"
"1696",214,"HF",46,"new","new",1,"1.088"
"1697",214,"HF",47,"new","new",1,"0.831"
"1698",214,"HF",48,"old","new",0,"0.832"
"1699",214,"HF",49,"new","new",1,"1.952"
"1700",214,"HF",50,"old","old",1,"1.088"
"1701",214,"HF",51,"old","old",1,"0.822"
"1702",214,"HF",52,"old","new",0,"0.983"
"1703",214,"HF",53,"new","new",1,"1.231"
"1704",214,"HF",54,"new","new",1,"1.902"
"1705",214,"HF",55,"old","old",1,"2.183"
"1706",214,"HF",56,"old","old",1,"1.135"
"1707",214,"HF",57,"old","old",1,"01. Aug"
"1708",214,"HF",58,"old","new",0,"0.95"
"1709",214,"HF",59,"old","new",0,"0.927"
"1710",214,"HF",60,"new","new",1,"0.727"
"1711",214,"HF",61,"new","new",1,"5.047"
"1712",214,"HF",62,"old","old",1,"0.95"
"1713",214,"HF",63,"old","new",0,"1.135"
"1714",214,"HF",64,"new","new",1,"0.983"
"1715",214,"HF",65,"old","old",1,"0.999"
"1716",214,"HF",66,"new","new",1,"0.792"
"1717",214,"HF",67,"old","new",0,"2.272"
"1718",214,"HF",68,"old","old",1,"1.447"
"1719",214,"HF",69,"old","new",0,"0.976"
"1720",214,"HF",70,"old","new",0,"01. Jun"
"1721",214,"HF",71,"old","new",0,"2.847"
"1722",214,"HF",72,"new","old",0,"2.072"
"1723",214,"HF",73,"new","new",1,"4.471"
"1724",214,"HF",74,"new","new",1,"0.935"
"1725",214,"HF",75,"new","new",1,"0.832"
"1726",214,"HF",76,"new","new",1,"5.527"
"1727",214,"HF",77,"old","old",1,"1.046"
"1728",214,"HF",78,"old","new",0,"Feb 56"
"1729",214,"HF",79,"old","new",0,"0.912"
"1730",214,"HF",80,"old","new",0,"1.071"
"1731",214,"HF",81,"old","new",0,"0.928"
"1732",214,"HF",82,"new","new",1,"0.679"
"1733",214,"HF",83,"old","old",1,"1.255"
"1734",214,"HF",84,"new","new",1,"0.807"
"1735",214,"HF",85,"new","new",1,"2.543"
"1736",214,"HF",86,"new","new",1,"0.743"
"1737",214,"HF",87,"new","new",1,"1.462"
"1738",214,"HF",88,"old","old",1,"1.471"
"1739",214,"HF",89,"old","new",0,"1.192"
"1740",214,"HF",90,"new","new",1,"1.382"
"1741",214,"HF",91,"old","new",0,"1.215"
"1742",214,"HF",92,"old","new",0,"1.079"
"1743",214,"HF",93,"old","old",1,"0.903"
"1744",214,"HF",94,"old","new",0,"1.295"
"1745",214,"HF",95,"new","new",1,"1.526"
"1746",214,"HF",96,"old","new",0,"0.855"
"1747",214,"HF",97,"old","old",1,"0.983"
"1748",214,"HF",98,"new","new",1,"0.879"
"1749",214,"HF",99,"new","new",1,"1.495"
"1750",214,"HF",100,"old","new",0,"0.999"
"1751",214,"HF",101,"new","new",1,"0.975"
"1752",214,"HF",102,"old","old",1,"0.976"
"1753",214,"HF",103,"new","new",1,"2.575"
"1754",214,"HF",104,"old","old",1,"1.006"
"1755",214,"HF",105,"old","old",1,"Jan 48"
"1756",214,"HF",106,"old","new",0,"0.864"
"1757",214,"HF",107,"old","new",0,"0.848"
"1758",214,"HF",108,"old","new",0,"0.862"
"1759",214,"HF",109,"old","new",0,"0.928"
"1760",214,"HF",110,"new","new",1,"1.335"
"1761",214,"HF",111,"old","old",1,"1.591"
"1762",214,"HF",112,"new","new",1,"1.047"
"1763",214,"HF",113,"new","new",1,"5.224"
"1764",214,"HF",114,"old","old",1,"2.439"
"1765",214,"HF",115,"new","new",1,"2.591"
"1766",214,"HF",116,"old","new",0,"0.823"
"1767",214,"HF",117,"new","new",1,"0.743"
"1768",214,"HF",118,"old","old",1,"1.223"
"1769",214,"HF",119,"new","new",1,"1.247"
"1770",214,"HF",120,"old","new",0,"1.199"
"1771",214,"HF",121,"new","new",1,"1.343"
"1772",214,"HF",122,"new","new",1,"1.263"
"1773",214,"HF",123,"new","new",1,"1.056"
"1774",214,"HF",124,"new","new",1,"0.863"
"1775",214,"HF",125,"new","old",0,"1.151"
"1776",214,"HF",126,"old","new",0,"0.934"
"1777",214,"HF",127,"new","new",1,"1.031"
"1778",214,"HF",128,"new","new",1,"1.016"
"1779",214,"HF",129,"new","new",1,"0.719"
"1780",214,"HF",130,"new","new",1,"0.927"
"1781",214,"HF",131,"new","new",1,"1.543"
"1782",214,"HF",132,"new","new",1,"2.438"
"1783",214,"HF",133,"new","new",1,"0.902"
"1784",214,"HF",134,"new","new",1,"1.831"
"1785",214,"HF",135,"new","new",1,"1.159"
"1786",214,"HF",136,"new","new",1,"0.768"
"1787",214,"HF",137,"new","new",1,"0.743"
"1788",214,"HF",138,"new","new",1,"0.751"
"1789",214,"HF",139,"new","new",1,"0.782"
"1790",214,"HF",140,"new","new",1,"1.343"
"1791",214,"HF",141,"old","old",1,"0.871"
"1792",214,"HF",142,"new","new",1,"0.904"
"1793",214,"HF",143,"old","new",0,"0.575"
"1794",214,"HF",144,"old","new",0,"0.863"
"1795",214,"HF",145,"new","new",1,"0.823"
"1796",214,"HF",146,"new","new",1,"1.198"
"1797",214,"HF",147,"new","new",1,"0.871"
"1798",214,"HF",148,"new","new",1,"0.919"
"1799",214,"HF",149,"old","new",0,"0.623"
"1800",214,"HF",150,"old","new",0,"0.8"
"1801",215,"HF",1,"new","old",0,"3.218"
"1802",215,"HF",2,"old","old",1,"0.995"
"1803",215,"HF",3,"old","new",0,"2.265"
"1804",215,"HF",4,"new","new",1,"0.98"
"1805",215,"HF",5,"old","new",0,"1.086"
"1806",215,"HF",6,"old","old",1,"0.791"
"1807",215,"HF",7,"old","new",0,"2.703"
"1808",215,"HF",8,"old","new",0,"1.895"
"1809",215,"HF",9,"new","new",1,"1.766"
"1810",215,"HF",10,"old","old",1,"0.758"
"1811",215,"HF",11,"old","old",1,"1.327"
"1812",215,"HF",12,"old","new",0,"1.495"
"1813",215,"HF",13,"old","old",1,"0.719"
"1814",215,"HF",14,"old","old",1,"0.888"
"1815",215,"HF",15,"new","new",1,"0.839"
"1816",215,"HF",16,"new","old",0,"0.576"
"1817",215,"HF",17,"old","old",1,"0.95"
"1818",215,"HF",18,"old","old",1,"0.743"
"1819",215,"HF",19,"new","new",1,"1.359"
"1820",215,"HF",20,"new","new",1,"1.127"
"1821",215,"HF",21,"old","old",1,"0.926"
"1822",215,"HF",22,"new","new",1,"0.887"
"1823",215,"HF",23,"new","new",1,"1.072"
"1824",215,"HF",24,"old","new",0,"0.688"
"1825",215,"HF",25,"old","old",1,"0.84"
"1826",215,"HF",26,"new","new",1,"3.246"
"1827",215,"HF",27,"new","new",1,"0.944"
"1828",215,"HF",28,"old","old",1,"1.126"
"1829",215,"HF",29,"new","new",1,"0.752"
"1830",215,"HF",30,"old","new",0,"1.055"
"1831",215,"HF",31,"new","new",1,"0.718"
"1832",215,"HF",32,"old","old",1,"0.943"
"1833",215,"HF",33,"new","new",1,"0.719"
"1834",215,"HF",34,"new","new",1,"0.823"
"1835",215,"HF",35,"old","new",0,"1.007"
"1836",215,"HF",36,"new","new",1,"1.511"
"1837",215,"HF",37,"old","new",0,"1.328"
"1838",215,"HF",38,"old","old",1,"0.799"
"1839",215,"HF",39,"new","old",0,"0.871"
"1840",215,"HF",40,"new","new",1,"1.166"
"1841",215,"HF",41,"new","new",1,"0.886"
"1842",215,"HF",42,"new","new",1,"0.775"
"1843",215,"HF",43,"new","new",1,"0.623"
"1844",215,"HF",44,"new","new",1,"2.567"
"1845",215,"HF",45,"old","new",0,"0.904"
"1846",215,"HF",46,"new","new",1,"0.934"
"1847",215,"HF",47,"new","new",1,"0.784"
"1848",215,"HF",48,"old","new",0,"0.982"
"1849",215,"HF",49,"new","new",1,"0.607"
"1850",215,"HF",50,"new","new",1,"1.006"
"1851",215,"HF",51,"old","old",1,"0.767"
"1852",215,"HF",52,"new","old",0,"1.008"
"1853",215,"HF",53,"old","old",1,"0.823"
"1854",215,"HF",54,"new","new",1,"1.231"
"1855",215,"HF",55,"new","new",1,"0.87"
"1856",215,"HF",56,"new","new",1,"0.647"
"1857",215,"HF",57,"old","old",1,"0.766"
"1858",215,"HF",58,"new","new",1,"0.639"
"1859",215,"HF",59,"old","old",1,"1.214"
"1860",215,"HF",60,"new","new",1,"0.72"
"1861",215,"HF",61,"old","new",0,"01. Aug"
"1862",215,"HF",62,"old","new",0,"0.551"
"1863",215,"HF",63,"old","old",1,"0.726"
"1864",215,"HF",64,"new","new",1,"0.943"
"1865",215,"HF",65,"new","old",0,"1.167"
"1866",215,"HF",66,"new","new",1,"0.655"
"1867",215,"HF",67,"old","old",1,"1.255"
"1868",215,"HF",68,"old","old",1,"1.136"
"1869",215,"HF",69,"old","old",1,"0.695"
"1870",215,"HF",70,"old","old",1,"0.895"
"1871",215,"HF",71,"new","new",1,"0.895"
"1872",215,"HF",72,"new","old",0,"1.095"
"1873",215,"HF",73,"new","old",0,"0.871"
"1874",215,"HF",74,"new","new",1,"0.991"
"1875",215,"HF",75,"new","new",1,"0.895"
"1876",215,"HF",76,"old","old",1,"0.752"
"1877",215,"HF",77,"new","old",0,"1.606"
"1878",215,"HF",78,"new","old",0,"0.911"
"1879",215,"HF",79,"new","old",0,"1.719"
"1880",215,"HF",80,"new","old",0,"1.223"
"1881",215,"HF",81,"new","new",1,"0.99"
"1882",215,"HF",82,"old","old",1,"1.832"
"1883",215,"HF",83,"new","new",1,"0.775"
"1884",215,"HF",84,"old","old",1,"2.175"
"1885",215,"HF",85,"new","new",1,"0.615"
"1886",215,"HF",86,"old","new",0,"0.935"
"1887",215,"HF",87,"new","old",0,"1.238"
"1888",215,"HF",88,"old","old",1,"0.84"
"1889",215,"HF",89,"old","new",0,"0.942"
"1890",215,"HF",90,"new","new",1,"0.976"
"1891",215,"HF",91,"new","new",1,"1.071"
"1892",215,"HF",92,"old","new",0,"0.96"
"1893",215,"HF",93,"old","old",1,"0.846"
"1894",215,"HF",94,"new","old",0,"0.992"
"1895",215,"HF",95,"old","old",1,"0.806"
"1896",215,"HF",96,"old","old",1,"0.912"
"1897",215,"HF",97,"new","new",1,"01. Jul"
"1898",215,"HF",98,"old","old",1,"2.719"
"1899",215,"HF",99,"new","new",1,"0.679"
"1900",215,"HF",100,"old","new",0,"1.431"
"1901",215,"HF",101,"new","old",0,"2.055"
"1902",215,"HF",102,"old","new",0,"0.511"
"1903",215,"HF",103,"new","old",0,"0.751"
"1904",215,"HF",104,"old","old",1,"0.928"
"1905",215,"HF",105,"new","old",0,"1.118"
"1906",215,"HF",106,"old","new",0,"0.967"
"1907",215,"HF",107,"new","new",1,"2.183"
"1908",215,"HF",108,"new","new",1,"4.256"
"1909",215,"HF",109,"old","new",0,"2.415"
"1910",215,"HF",110,"new","new",1,"0.743"
"1911",215,"HF",111,"old","old",1,"0.943"
"1912",215,"HF",112,"new","old",0,"0.832"
"1913",215,"HF",113,"old","old",1,"1.839"
"1914",215,"HF",114,"new","new",1,"0.6"
"1915",215,"HF",115,"new","new",1,"01. Apr"
"1916",215,"HF",116,"old","new",0,"2.847"
"1917",215,"HF",117,"old","new",0,"0.623"
"1918",215,"HF",118,"new","new",1,"0.632"
"1919",215,"HF",119,"old","new",0,"0.656"
"1920",215,"HF",120,"old","old",1,"1.048"
"1921",215,"HF",121,"old","new",0,"1.064"
"1922",215,"HF",122,"old","old",1,"1.166"
"1923",215,"HF",123,"old","old",1,"Jan 52"
"1924",215,"HF",124,"old","old",1,"0.887"
"1925",215,"HF",125,"old","old",1,"0.983"
"1926",215,"HF",126,"new","new",1,"0.759"
"1927",215,"HF",127,"old","new",0,"1.079"
"1928",215,"HF",128,"new","new",1,"0.591"
"1929",215,"HF",129,"new","new",1,"0.735"
"1930",215,"HF",130,"new","new",1,"1.038"
"1931",215,"HF",131,"old","new",0,"1.023"
"1932",215,"HF",132,"old","old",1,"1.719"
"1933",215,"HF",133,"old","old",1,"1.007"
"1934",215,"HF",134,"new","old",0,"4.814"
"1935",215,"HF",135,"new","old",0,"1.223"
"1936",215,"HF",136,"new","new",1,"0.632"
"1937",215,"HF",137,"new","old",0,"1.023"
"1938",215,"HF",138,"old","old",1,"1.271"
"1939",215,"HF",139,"old","new",0,"0.952"
"1940",215,"HF",140,"old","old",1,"2.432"
"1941",215,"HF",141,"new","old",0,"1.534"
"1942",215,"HF",142,"old","new",0,"0.679"
"1943",215,"HF",143,"old","old",1,"0.975"
"1944",215,"HF",144,"old","old",1,"0.672"
"1945",215,"HF",145,"old","old",1,"1.176"
"1946",215,"HF",146,"new","new",1,"2.967"
"1947",215,"HF",147,"old","old",1,"0.895"
"1948",215,"HF",148,"new","new",1,"0.943"
"1949",215,"HF",149,"new","new",1,"0.575"
"1950",215,"HF",150,"old","old",1,"0.838"
"1951",215,"LF",1,"old","old",1,"1.929"
"1952",215,"LF",2,"old","old",1,"1.694"
"1953",215,"LF",3,"old","old",1,"0.695"
"1954",215,"LF",4,"old","old",1,"0.608"
"1955",215,"LF",5,"old","new",0,"1.103"
"1956",215,"LF",6,"new","new",1,"0.744"
"1957",215,"LF",7,"old","old",1,"0.847"
"1958",215,"LF",8,"old","old",1,"0.624"
"1959",215,"LF",9,"old","old",1,"0.822"
"1960",215,"LF",10,"new","new",1,"0.687"
"1961",215,"LF",11,"new","new",1,"01. Mrz"
"1962",215,"LF",12,"old","old",1,"1.071"
"1963",215,"LF",13,"old","old",1,"0.688"
"1964",215,"LF",14,"new","new",1,"01. Jul"
"1965",215,"LF",15,"new","old",0,"1.104"
"1966",215,"LF",16,"new","new",1,"0.711"
"1967",215,"LF",17,"new","new",1,"0.88"
"1968",215,"LF",18,"new","new",1,"0.798"
"1969",215,"LF",19,"new","new",1,"1.023"
"1970",215,"LF",20,"old","old",1,"0.878"
"1971",215,"LF",21,"old","old",1,"1.447"
"1972",215,"LF",22,"old","old",1,"0.663"
"1973",215,"LF",23,"old","old",1,"0.855"
"1974",215,"LF",24,"old","old",1,"1.023"
"1975",215,"LF",25,"new","new",1,"0.928"
"1976",215,"LF",26,"old","old",1,"0.622"
"1977",215,"LF",27,"new","new",1,"Jan 56"
"1978",215,"LF",28,"new","old",0,"1.928"
"1979",215,"LF",29,"new","old",0,"1.038"
"1980",215,"LF",30,"old","new",0,"0.974"
"1981",215,"LF",31,"new","new",1,"0.911"
"1982",215,"LF",32,"old","new",0,"1.302"
"1983",215,"LF",33,"new","new",1,"1.351"
"1984",215,"LF",34,"old","old",1,"1.048"
"1985",215,"LF",35,"new","new",1,"0.623"
"1986",215,"LF",36,"old","old",1,"0.712"
"1987",215,"LF",37,"new","new",1,"0.847"
"1988",215,"LF",38,"old","old",1,"0.895"
"1989",215,"LF",39,"new","new",1,"0.824"
"1990",215,"LF",40,"old","old",1,"0.736"
"1991",215,"LF",41,"new","new",1,"0.92"
"1992",215,"LF",42,"old","new",0,"0.76"
"1993",215,"LF",43,"old","old",1,"0.767"
"1994",215,"LF",44,"new","new",1,"0.767"
"1995",215,"LF",45,"old","old",1,"0.735"
"1996",215,"LF",46,"old","old",1,"0.887"
"1997",215,"LF",47,"old","old",1,"0.735"
"1998",215,"LF",48,"old","old",1,"1.415"
"1999",215,"LF",49,"old","old",1,"0.974"
"2000",215,"LF",50,"new","new",1,"0.911"
"2001",215,"LF",51,"new","new",1,"0.903"
"2002",215,"LF",52,"new","new",1,"0.751"
"2003",215,"LF",53,"old","new",0,"3.271"
"2004",215,"LF",54,"new","new",1,"0.672"
"2005",215,"LF",55,"new","new",1,"0.782"
"2006",215,"LF",56,"old","new",0,"0.592"
"2007",215,"LF",57,"new","new",1,"0.535"
"2008",215,"LF",58,"old","new",0,"0.767"
"2009",215,"LF",59,"old","new",0,"0.398"
"2010",215,"LF",60,"old","old",1,"0.743"
"2011",215,"LF",61,"old","old",1,"1.119"
"2012",215,"LF",62,"new","new",1,"0.991"
"2013",215,"LF",63,"old","old",1,"0.759"
"2014",215,"LF",64,"new","new",1,"0.607"
"2015",215,"LF",65,"new","new",1,"0.536"
"2016",215,"LF",66,"old","new",0,"0.463"
"2017",215,"LF",67,"new","new",1,"0.511"
"2018",215,"LF",68,"old","new",0,"0.511"
"2019",215,"LF",69,"old","old",1,"1.158"
"2020",215,"LF",70,"old","old",1,"0.903"
"2021",215,"LF",71,"old","new",0,"0.711"
"2022",215,"LF",72,"old","new",0,"1.159"
"2023",215,"LF",73,"new","new",1,"0.687"
"2024",215,"LF",74,"new","new",1,"1"
"2025",215,"LF",75,"old","old",1,"0.736"
"2026",215,"LF",76,"new","new",1,"0.736"
"2027",215,"LF",77,"new","new",1,"0.872"
"2028",215,"LF",78,"new","new",1,"0.543"
"2029",215,"LF",79,"old","new",0,"0.936"
"2030",215,"LF",80,"new","new",1,"0.567"
"2031",215,"LF",81,"old","new",0,"0.456"
"2032",215,"LF",82,"old","old",1,"1.502"
"2033",215,"LF",83,"new","old",0,"0.912"
"2034",215,"LF",84,"new","new",1,"0.816"
"2035",215,"LF",85,"new","new",1,"0.662"
"2036",215,"LF",86,"new","old",0,"3.776"
"2037",215,"LF",87,"new","new",1,"0.598"
"2038",215,"LF",88,"new","new",1,"0.967"
"2039",215,"LF",89,"new","new",1,"0.654"
"2040",215,"LF",90,"old","old",1,"0.847"
"2041",215,"LF",91,"old","new",0,"0.703"
"2042",215,"LF",92,"old","new",0,"2"
"2043",215,"LF",93,"new","new",1,"0.824"
"2044",215,"LF",94,"old","old",1,"1.159"
"2045",215,"LF",95,"old","new",0,"0.199"
"2046",215,"LF",96,"new","old",0,"1.367"
"2047",215,"LF",97,"new","new",1,"0.743"
"2048",215,"LF",98,"new","new",1,"0.862"
"2049",215,"LF",99,"old","old",1,"0.744"
"2050",215,"LF",100,"old","old",1,"0.855"
"2051",215,"LF",101,"new","new",1,"0.814"
"2052",215,"LF",102,"new","new",1,"0.768"
"2053",215,"LF",103,"new","new",1,"0.599"
"2054",215,"LF",104,"new","new",1,"0.976"
"2055",215,"LF",105,"new","new",1,"0.622"
"2056",215,"LF",106,"old","new",0,"0.735"
"2057",215,"LF",107,"new","new",1,"1.359"
"2058",215,"LF",108,"new","old",0,"0.84"
"2059",215,"LF",109,"old","old",1,"0.951"
"2060",215,"LF",110,"new","new",1,"0.742"
"2061",215,"LF",111,"old","old",1,"0.743"
"2062",215,"LF",112,"old","old",1,"0.919"
"2063",215,"LF",113,"old","new",0,"1.295"
"2064",215,"LF",114,"new","new",1,"0.904"
"2065",215,"LF",115,"new","new",1,"0.856"
"2066",215,"LF",116,"old","old",1,"0.863"
"2067",215,"LF",117,"old","new",0,"1.143"
"2068",215,"LF",118,"new","new",1,"1.456"
"2069",215,"LF",119,"old","old",1,"0.838"
"2070",215,"LF",120,"new","new",1,"0.744"
"2071",215,"LF",121,"old","new",0,"0.856"
"2072",215,"LF",122,"new","new",1,"1.103"
"2073",215,"LF",123,"old","new",0,"0.918"
"2074",215,"LF",124,"old","old",1,"0.728"
"2075",215,"LF",125,"new","new",1,"1.823"
"2076",215,"LF",126,"new","new",1,"0.383"
"2077",215,"LF",127,"new","new",1,"0.84"
"2078",215,"LF",128,"old","old",1,"0.886"
"2079",215,"LF",129,"new","new",1,"0.295"
"2080",215,"LF",130,"new","new",1,"0.239"
"2081",215,"LF",131,"old","new",0,"1.384"
"2082",215,"LF",132,"old","old",1,"1.062"
"2083",215,"LF",133,"old","old",1,"0.679"
"2084",215,"LF",134,"old","old",1,"0.927"
"2085",215,"LF",135,"new","old",0,"0.792"
"2086",215,"LF",136,"new","new",1,"0.958"
"2087",215,"LF",137,"old","new",0,"1.262"
"2088",215,"LF",138,"new","new",1,"1.688"
"2089",215,"LF",139,"new","new",1,"2.647"
"2090",215,"LF",140,"old","new",0,"0.848"
"2091",215,"LF",141,"old","new",0,"0.68"
"2092",215,"LF",142,"new","new",1,"0.799"
"2093",215,"LF",143,"new","new",1,"0.606"
"2094",215,"LF",144,"new","new",1,"0.566"
"2095",215,"LF",145,"old","new",0,"0.462"
"2096",215,"LF",146,"new","new",1,"0.488"
"2097",215,"LF",147,"old","new",0,"0.391"
"2098",215,"LF",148,"old","new",0,"0.567"
"2099",215,"LF",149,"new","new",1,"0.559"
"2100",215,"LF",150,"new","new",1,"0.334"
"2101",216,"HF",1,"old","old",1,"2.694"
"2102",216,"HF",2,"new","old",0,"1.366"
"2103",216,"HF",3,"new","new",1,"0.823"
"2104",216,"HF",4,"new","new",1,"0.91"
"2105",216,"HF",5,"old","old",1,"0.671"
"2106",216,"HF",6,"old","old",1,"0.687"
"2107",216,"HF",7,"new","new",1,"0.743"
"2108",216,"HF",8,"old","old",1,"0.472"
"2109",216,"HF",9,"new","old",0,"0.774"
"2110",216,"HF",10,"new","new",1,"0.735"
"2111",216,"HF",11,"old","old",1,"0.486"
"2112",216,"HF",12,"new","old",0,"0.743"
"2113",216,"HF",13,"new","new",1,"1.719"
"2114",216,"HF",14,"old","old",1,"1.558"
"2115",216,"HF",15,"new","new",1,"0.694"
"2116",216,"HF",16,"old","old",1,"0.638"
"2117",216,"HF",17,"new","old",0,"1.351"
"2118",216,"HF",18,"new","new",1,"0.727"
"2119",216,"HF",19,"new","new",1,"0.67"
"2120",216,"HF",20,"old","old",1,"0.568"
"2121",216,"HF",21,"old","old",1,"0.702"
"2122",216,"HF",22,"old","old",1,"0.695"
"2123",216,"HF",23,"new","old",0,"0.823"
"2124",216,"HF",24,"new","new",1,"0.624"
"2125",216,"HF",25,"old","old",1,"0.686"
"2126",216,"HF",26,"old","old",1,"0.76"
"2127",216,"HF",27,"new","new",1,"1.103"
"2128",216,"HF",28,"new","old",0,"0.72"
"2129",216,"HF",29,"new","new",1,"0.782"
"2130",216,"HF",30,"old","old",1,"1.502"
"2131",216,"HF",31,"new","old",0,"0.887"
"2132",216,"HF",32,"new","new",1,"0.862"
"2133",216,"HF",33,"new","new",1,"0.648"
"2134",216,"HF",34,"old","new",0,"1.808"
"2135",216,"HF",35,"old","old",1,"Jan 91"
"2136",216,"HF",36,"old","old",1,"1.192"
"2137",216,"HF",37,"new","new",1,"0.711"
"2138",216,"HF",38,"new","new",1,"0.807"
"2139",216,"HF",39,"new","old",0,"0.928"
"2140",216,"HF",40,"new","new",1,"0.655"
"2141",216,"HF",41,"old","old",1,"1.903"
"2142",216,"HF",42,"new","new",1,"0.831"
"2143",216,"HF",43,"new","new",1,"Feb 87"
"2144",216,"HF",44,"new","old",0,"0.71"
"2145",216,"HF",45,"new","new",1,"1.424"
"2146",216,"HF",46,"old","old",1,"0.983"
"2147",216,"HF",47,"new","new",1,"1.023"
"2148",216,"HF",48,"old","old",1,"0.8"
"2149",216,"HF",49,"old","new",0,"0.943"
"2150",216,"HF",50,"new","old",0,"0.632"
"2151",216,"HF",51,"old","old",1,"3.719"
"2152",216,"HF",52,"old","old",1,"1.008"
"2153",216,"HF",53,"new","old",0,"1.263"
"2154",216,"HF",54,"old","new",0,"0.904"
"2155",216,"HF",55,"old","new",0,"1.726"
"2156",216,"HF",56,"new","new",1,"0.822"
"2157",216,"HF",57,"old","old",1,"0.615"
"2158",216,"HF",58,"new","old",0,"1.063"
"2159",216,"HF",59,"new","new",1,"0.631"
"2160",216,"HF",60,"old","old",1,"0.702"
"2161",216,"HF",61,"new","new",1,"8.504"
"2162",216,"HF",62,"old","new",0,"0.846"
"2163",216,"HF",63,"new","old",0,"0.583"
"2164",216,"HF",64,"new","old",0,"0.67"
"2165",216,"HF",65,"new","new",1,"1.447"
"2166",216,"HF",66,"new","new",1,"2.575"
"2167",216,"HF",67,"new","new",1,"2.599"
"2168",216,"HF",68,"old","new",0,"0.83"
"2169",216,"HF",69,"new","new",1,"2.176"
"2170",216,"HF",70,"old","new",0,"1.551"
"2171",216,"HF",71,"old","new",0,"0.879"
"2172",216,"HF",72,"old","old",1,"0.6"
"2173",216,"HF",73,"old","old",1,"0.632"
"2174",216,"HF",74,"new","old",0,"0.631"
"2175",216,"HF",75,"old","new",0,"0.911"
"2176",216,"HF",76,"old","old",1,"0.607"
"2177",216,"HF",77,"old","new",0,"0.567"
"2178",216,"HF",78,"old","old",1,"0.712"
"2179",216,"HF",79,"old","old",1,"0.727"
"2180",216,"HF",80,"old","old",1,"0.8"
"2181",216,"HF",81,"new","old",0,"1.144"
"2182",216,"HF",82,"old","old",1,"0.895"
"2183",216,"HF",83,"old","new",0,"0.681"
"2184",216,"HF",84,"old","old",1,"0.558"
"2185",216,"HF",85,"old","new",0,"1.272"
"2186",216,"HF",86,"old","old",1,"0.839"
"2187",216,"HF",87,"new","old",0,"0.751"
"2188",216,"HF",88,"old","new",0,"2.134"
"2189",216,"HF",89,"new","new",1,"0.83"
"2190",216,"HF",90,"old","old",1,"0.623"
"2191",216,"HF",91,"old","old",1,"0.518"
"2192",216,"HF",92,"old","old",1,"3.119"
"2193",216,"HF",93,"old","new",0,"1.622"
"2194",216,"HF",94,"new","old",0,"0.718"
"2195",216,"HF",95,"new","new",1,"0.999"
"2196",216,"HF",96,"new","new",1,"2.767"
"2197",216,"HF",97,"new","new",1,"7.943"
"2198",216,"HF",98,"old","old",1,"0.879"
"2199",216,"HF",99,"new","new",1,"0.903"
"2200",216,"HF",100,"old","new",0,"0.943"
"2201",216,"HF",101,"new","old",0,"0.568"
"2202",216,"HF",102,"old","old",1,"2.359"
"2203",216,"HF",103,"old","new",0,"0.791"
"2204",216,"HF",104,"old","old",1,"0.928"
"2205",216,"HF",105,"old","new",0,"1.976"
"2206",216,"HF",106,"old","new",0,"Feb 79"
"2207",216,"HF",107,"old","old",1,"0.951"
"2208",216,"HF",108,"new","old",0,"0.768"
"2209",216,"HF",109,"new","old",0,"0.791"
"2210",216,"HF",110,"old","new",0,"0.575"
"2211",216,"HF",111,"new","old",0,"0.567"
"2212",216,"HF",112,"new","new",1,"0.927"
"2213",216,"HF",113,"new","new",1,"0.839"
"2214",216,"HF",114,"old","old",1,"1.751"
"2215",216,"HF",115,"new","old",0,"0.454"
"2216",216,"HF",116,"new","old",0,"1.231"
"2217",216,"HF",117,"new","new",1,"1.023"
"2218",216,"HF",118,"new","new",1,"1.247"
"2219",216,"HF",119,"new","old",0,"0.952"
"2220",216,"HF",120,"new","old",0,"2.567"
"2221",216,"HF",121,"old","new",0,"1.311"
"2222",216,"HF",122,"new","new",1,"Mrz 76"
"2223",216,"HF",123,"new","new",1,"1"
"2224",216,"HF",124,"new","new",1,"2.191"
"2225",216,"HF",125,"new","new",1,"3.215"
"2226",216,"HF",126,"old","old",1,"0.822"
"2227",216,"HF",127,"new","old",0,"5.062"
"2228",216,"HF",128,"new","new",1,"1.015"
"2229",216,"HF",129,"new","new",1,"2.007"
"2230",216,"HF",130,"new","new",1,"0.903"
"2231",216,"HF",131,"old","new",0,"2.144"
"2232",216,"HF",132,"old","old",1,"1.007"
"2233",216,"HF",133,"old","new",0,"0.766"
"2234",216,"HF",134,"old","old",1,"0.591"
"2235",216,"HF",135,"new","old",0,"0.624"
"2236",216,"HF",136,"old","new",0,"0.91"
"2237",216,"HF",137,"old","old",1,"3.831"
"2238",216,"HF",138,"new","old",0,"0.671"
"2239",216,"HF",139,"old","new",0,"0.936"
"2240",216,"HF",140,"new","new",1,"1.366"
"2241",216,"HF",141,"old","old",1,"0.743"
"2242",216,"HF",142,"old","old",1,"0.455"
"2243",216,"HF",143,"old","new",0,"0.687"
"2244",216,"HF",144,"old","old",1,"2.327"
"2245",216,"HF",145,"old","old",1,"0.551"
"2246",216,"HF",146,"new","new",1,"0.703"
"2247",216,"HF",147,"old","old",1,"0.647"
"2248",216,"HF",148,"old","old",1,"1"
"2249",216,"HF",149,"old","old",1,"0.847"
"2250",216,"HF",150,"new","old",0,"1"
"2251",216,"LF",1,"old","old",1,"2.709"
"2252",216,"LF",2,"old","old",1,"0.567"
"2253",216,"LF",3,"new","new",1,"0.983"
"2254",216,"LF",4,"new","new",1,"0.919"
"2255",216,"LF",5,"new","new",1,"0.68"
"2256",216,"LF",6,"new","new",1,"0.918"
"2257",216,"LF",7,"new","old",0,"0.6"
"2258",216,"LF",8,"old","old",1,"0.591"
"2259",216,"LF",9,"old","old",1,"1.312"
"2260",216,"LF",10,"new","new",1,"0.744"
"2261",216,"LF",11,"new","old",0,"0.455"
"2262",216,"LF",12,"old","old",1,"0.726"
"2263",216,"LF",13,"new","new",1,"0.896"
"2264",216,"LF",14,"new","new",1,"0.823"
"2265",216,"LF",15,"new","new",1,"0.862"
"2266",216,"LF",16,"old","old",1,"0.631"
"2267",216,"LF",17,"new","new",1,"0.991"
"2268",216,"LF",18,"old","old",1,"0.736"
"2269",216,"LF",19,"old","new",0,"0.838"
"2270",216,"LF",20,"old","old",1,"0.67"
"2271",216,"LF",21,"old","old",1,"0.647"
"2272",216,"LF",22,"old","old",1,"0.551"
"2273",216,"LF",23,"new","new",1,"0.646"
"2274",216,"LF",24,"old","old",1,"0.632"
"2275",216,"LF",25,"new","old",0,"0.623"
"2276",216,"LF",26,"old","new",0,"1.078"
"2277",216,"LF",27,"old","old",1,"3.175"
"2278",216,"LF",28,"old","old",1,"0.583"
"2279",216,"LF",29,"new","new",1,"0.838"
"2280",216,"LF",30,"new","new",1,"1.288"
"2281",216,"LF",31,"new","old",0,"0.959"
"2282",216,"LF",32,"old","old",1,"1.454"
"2283",216,"LF",33,"new","old",0,"1.062"
"2284",216,"LF",34,"new","new",1,"1.191"
"2285",216,"LF",35,"old","old",1,"0.968"
"2286",216,"LF",36,"old","old",1,"1.135"
"2287",216,"LF",37,"new","new",1,"1.311"
"2288",216,"LF",38,"old","old",1,"0.56"
"2289",216,"LF",39,"new","old",0,"6.334"
"2290",216,"LF",40,"old","new",0,"0.783"
"2291",216,"LF",41,"new","old",0,"0.639"
"2292",216,"LF",42,"old","old",1,"0.678"
"2293",216,"LF",43,"old","old",1,"0.854"
"2294",216,"LF",44,"old","new",0,"0.759"
"2295",216,"LF",45,"old","old",1,"0.478"
"2296",216,"LF",46,"new","new",1,"0.999"
"2297",216,"LF",47,"new","new",1,"01. Mrz"
"2298",216,"LF",48,"old","old",1,"1.094"
"2299",216,"LF",49,"old","old",1,"0.735"
"2300",216,"LF",50,"old","new",0,"0.824"
"2301",216,"LF",51,"old","new",0,"1.246"
"2302",216,"LF",52,"new","old",0,"0.631"
"2303",216,"LF",53,"old","old",1,"01. Feb"
"2304",216,"LF",54,"new","new",1,"0.662"
"2305",216,"LF",55,"new","new",1,"1.112"
"2306",216,"LF",56,"old","old",1,"0.664"
"2307",216,"LF",57,"new","new",1,"0.951"
"2308",216,"LF",58,"old","old",1,"0.942"
"2309",216,"LF",59,"old","new",0,"1.014"
"2310",216,"LF",60,"new","new",1,"0.744"
"2311",216,"LF",61,"new","new",1,"4.518"
"2312",216,"LF",62,"new","new",1,"1.023"
"2313",216,"LF",63,"old","old",1,"0.758"
"2314",216,"LF",64,"new","new",1,"1.255"
"2315",216,"LF",65,"old","new",0,"Jan 19"
"2316",216,"LF",66,"new","new",1,"0.982"
"2317",216,"LF",67,"new","new",1,"2.023"
"2318",216,"LF",68,"new","old",0,"0.735"
"2319",216,"LF",69,"old","old",1,"0.702"
"2320",216,"LF",70,"new","old",0,"0.944"
"2321",216,"LF",71,"old","old",1,"0.863"
"2322",216,"LF",72,"old","old",1,"1.152"
"2323",216,"LF",73,"old","new",0,"0.718"
"2324",216,"LF",74,"new","old",0,"0.776"
"2325",216,"LF",75,"new","old",0,"2.655"
"2326",216,"LF",76,"new","new",1,"0.991"
"2327",216,"LF",77,"old","old",1,"Mrz 27"
"2328",216,"LF",78,"new","new",1,"2.824"
"2329",216,"LF",79,"old","old",1,"0.975"
"2330",216,"LF",80,"old","new",0,"4.455"
"2331",216,"LF",81,"new","new",1,"1.592"
"2332",216,"LF",82,"old","old",1,"0.774"
"2333",216,"LF",83,"old","old",1,"0.871"
"2334",216,"LF",84,"new","new",1,"1.767"
"2335",216,"LF",85,"new","new",1,"0.743"
"2336",216,"LF",86,"old","old",1,"0.847"
"2337",216,"LF",87,"old","old",1,"0.76"
"2338",216,"LF",88,"old","old",1,"0.742"
"2339",216,"LF",89,"old","old",1,"0.95"
"2340",216,"LF",90,"new","new",1,"0.598"
"2341",216,"LF",91,"new","new",1,"0.75"
"2342",216,"LF",92,"old","old",1,"0.72"
"2343",216,"LF",93,"new","new",1,"0.79"
"2344",216,"LF",94,"new","old",0,"0.911"
"2345",216,"LF",95,"new","old",0,"1.062"
"2346",216,"LF",96,"new","new",1,"0.792"
"2347",216,"LF",97,"new","new",1,"0.814"
"2348",216,"LF",98,"old","new",0,"2.208"
"2349",216,"LF",99,"old","old",1,"2.255"
"2350",216,"LF",100,"old","old",1,"0.96"
"2351",216,"LF",101,"old","new",0,"3.191"
"2352",216,"LF",102,"new","new",1,"0.79"
"2353",216,"LF",103,"new","new",1,"0.879"
"2354",216,"LF",104,"old","old",1,"0.864"
"2355",216,"LF",105,"new","old",0,"3.231"
"2356",216,"LF",106,"new","new",1,"0.751"
"2357",216,"LF",107,"new","new",1,"1.335"
"2358",216,"LF",108,"old","new",0,"2.367"
"2359",216,"LF",109,"new","new",1,"0.959"
"2360",216,"LF",110,"new","old",0,"0.679"
"2361",216,"LF",111,"new","old",0,"0.847"
"2362",216,"LF",112,"old","old",1,"0.775"
"2363",216,"LF",113,"old","old",1,"0.742"
"2364",216,"LF",114,"new","old",0,"0.959"
"2365",216,"LF",115,"old","new",0,"0.671"
"2366",216,"LF",116,"new","old",0,"0.638"
"2367",216,"LF",117,"old","new",0,"1.296"
"2368",216,"LF",118,"new","new",1,"1.223"
"2369",216,"LF",119,"new","new",1,"1.487"
"2370",216,"LF",120,"new","new",1,"0.944"
"2371",216,"LF",121,"new","new",1,"0.774"
"2372",216,"LF",122,"new","old",0,"0.743"
"2373",216,"LF",123,"new","old",0,"0.982"
"2374",216,"LF",124,"old","old",1,"0.423"
"2375",216,"LF",125,"old","old",1,"0.415"
"2376",216,"LF",126,"old","new",0,"0.614"
"2377",216,"LF",127,"old","old",1,"1.887"
"2378",216,"LF",128,"old","old",1,"1.496"
"2379",216,"LF",129,"old","new",0,"0.806"
"2380",216,"LF",130,"old","new",0,"0.768"
"2381",216,"LF",131,"new","old",0,"1.447"
"2382",216,"LF",132,"new","new",1,"0.951"
"2383",216,"LF",133,"new","old",0,"0.951"
"2384",216,"LF",134,"new","new",1,"0.799"
"2385",216,"LF",135,"new","old",0,"0.863"
"2386",216,"LF",136,"old","old",1,"1.247"
"2387",216,"LF",137,"new","new",1,"0.72"
"2388",216,"LF",138,"old","old",1,"4.038"
"2389",216,"LF",139,"old","new",0,"1.543"
"2390",216,"LF",140,"old","new",0,"1.351"
"2391",216,"LF",141,"old","old",1,"0.6"
"2392",216,"LF",142,"old","new",0,"0.927"
"2393",216,"LF",143,"old","old",1,"Feb 16"
"2394",216,"LF",144,"old","old",1,"0.758"
"2395",216,"LF",145,"old","old",1,"0.807"
"2396",216,"LF",146,"new","new",1,"0.808"
"2397",216,"LF",147,"new","new",1,"1.687"
"2398",216,"LF",148,"new","new",1,"0.823"
"2399",216,"LF",149,"old","old",1,"0.72"
"2400",216,"LF",150,"new","new",1,"2.231"
"2401",217,"HF",1,"old","old",1,"4.954"
"2402",217,"HF",2,"new","new",1,"1.255"
"2403",217,"HF",3,"old","old",1,"0.559"
"2404",217,"HF",4,"new","new",1,"0.615"
"2405",217,"HF",5,"old","old",1,"0.63"
"2406",217,"HF",6,"old","old",1,"0.022"
"2407",217,"HF",7,"old","old",1,"2.095"
"2408",217,"HF",8,"old","old",1,"0.735"
"2409",217,"HF",9,"old","old",1,"0.607"
"2410",217,"HF",10,"old","old",1,"0.582"
"2411",217,"HF",11,"old","new",0,"1.255"
"2412",217,"HF",12,"old","old",1,"0.631"
"2413",217,"HF",13,"old","new",0,"1.447"
"2414",217,"HF",14,"old","new",0,"1.207"
"2415",217,"HF",15,"old","old",1,"0.727"
"2416",217,"HF",16,"new","new",1,"1.518"
"2417",217,"HF",17,"old","old",1,"0.614"
"2418",217,"HF",18,"new","new",1,"0.75"
"2419",217,"HF",19,"old","old",1,"0.646"
"2420",217,"HF",20,"new","new",1,"0.8"
"2421",217,"HF",21,"old","old",1,"0.639"
"2422",217,"HF",22,"old","old",1,"0.679"
"2423",217,"HF",23,"old","new",0,"0.751"
"2424",217,"HF",24,"new","new",1,"1"
"2425",217,"HF",25,"old","old",1,"0.695"
"2426",217,"HF",26,"new","new",1,"1.255"
"2427",217,"HF",27,"new","new",1,"0.742"
"2428",217,"HF",28,"old","new",0,"0.727"
"2429",217,"HF",29,"new","new",1,"1.159"
"2430",217,"HF",30,"old","new",0,"1.415"
"2431",217,"HF",31,"old","old",1,"0.576"
"2432",217,"HF",32,"new","new",1,"0.782"
"2433",217,"HF",33,"old","old",1,"0.592"
"2434",217,"HF",34,"old","old",1,"0.543"
"2435",217,"HF",35,"old","old",1,"0.591"
"2436",217,"HF",36,"new","new",1,"0.608"
"2437",217,"HF",37,"old","old",1,"0.575"
"2438",217,"HF",38,"old","old",1,"2.055"
"2439",217,"HF",39,"new","new",1,"0.687"
"2440",217,"HF",40,"new","new",1,"0.599"
"2441",217,"HF",41,"new","old",0,"0.768"
"2442",217,"HF",42,"new","new",1,"0.694"
"2443",217,"HF",43,"old","old",1,"0.744"
"2444",217,"HF",44,"new","new",1,"0.966"
"2445",217,"HF",45,"new","new",1,"0.599"
"2446",217,"HF",46,"new","new",1,"1.246"
"2447",217,"HF",47,"old","old",1,"0.543"
"2448",217,"HF",48,"new","old",0,"0.783"
"2449",217,"HF",49,"new","new",1,"0.807"
"2450",217,"HF",50,"old","old",1,"0.519"
